Participant,Trial,Self,OtherConfidence,Others,ChoiceRed,correct,RT
101,1,0.6249298409644735,0.99999,0.5,1,0,3542
101,4,0.8749298409644735,0.99999,0.5,1,0,1797
101,5,0.12492984096447346,0.5,0.25,0,1,1910
101,6,0.37492984096447346,0,1e-4,0,1,1747
101,9,0.7499298409644735,0,1e-4,1,0,2048
101,10,0.6249298409644735,0.5,0.25,1,0,2789
101,11,0.37492984096447346,0.99999,0.5,0,0,2265
101,13,0.49992984096447346,0,1e-4,1,0,10239
101,15,0.8749298409644735,0,1e-4,1,0,1786
101,16,0.8749298409644735,0.5,0.75,1,1,1890
101,19,0.12492984096447346,0.5,0.75,0,1,1862
101,21,0.7499298409644735,0.99999,0.25,1,0,2104
101,22,0.49992984096447346,0.5,0.5,1,0,4140
101,24,0.12492984096447346,0,1e-4,0,1,1862
101,25,0.49992984096447346,0,1e-4,0,1,2488
101,28,0.49992984096447346,0.99999,0.75,0,0,6658
101,32,0.8749298409644735,0.5,0.25,1,1,1907
101,34,0.7499298409644735,0,1e-4,1,0,1917
101,36,0.49992984096447346,0.99999,0.25,0,0,4035
101,37,0.24992984096447346,0.99999,0.25,0,0,2010
101,41,0.7499298409644735,0.5,0.5,1,0,2248
101,42,0.24992984096447346,0,1e-4,0,1,1922
101,44,0.6249298409644735,0,1e-4,1,0,3044
101,46,0.37492984096447346,0.5,0.25,0,1,2237
101,47,0.24992984096447346,0,1e-4,0,0,1388
101,49,0.24992984096447346,0.5,0.5,0,1,1441
101,50,0.6249298409644735,0.5,0.25,1,1,1823
101,52,0.12492984096447346,0.5,0.25,0,1,1554
101,56,0.37492984096447346,0,1e-4,0,0,1714
101,57,0.37492984096447346,0.5,0.5,0,0,1700
101,58,0.12492984096447346,0,1e-4,0,1,1597
101,59,0.7499298409644735,0.99999,0.75,1,1,2013
101,61,0.6249298409644735,0.99999,0.5,1,0,1960
101,62,0.49992984096447346,0.99999,0.25,0,1,3330
101,63,0.8749298409644735,0.99999,0.75,1,1,1401
101,65,0.24992984096447346,0.5,0.25,0,0,1574
101,67,0.7499298409644735,0.5,0.25,1,0,1588
101,68,0.12492984096447346,0.5,0.5,0,1,1401
101,71,0.6249298409644735,0.99999,0.75,1,1,2140
101,72,0.6249298409644735,0.99999,0.25,1,0,1590
101,73,0.8749298409644735,0,1e-4,0,1,1667
101,74,0.49992984096447346,0,1e-4,0,1,3080
101,77,0.7499298409644735,0,1e-4,1,0,1425
101,78,0.6249298409644735,0,1e-4,1,0,1847
101,80,0.7499298409644735,0.5,0.75,1,1,1930
101,82,0.8749298409644735,0,1e-4,1,0,2005
101,83,0.24992984096447346,0.99999,0.25,0,1,1480
101,89,0.37492984096447346,0,1e-4,0,1,2320
101,92,0.8749298409644735,0.99999,0.25,1,1,1415
101,95,0.12492984096447346,0.99999,0.75,0,0,1505
101,97,0.37492984096447346,0.99999,0.25,0,0,3039
101,98,0.12492984096447346,0,1e-4,0,1,1566
101,99,0.6249298409644735,0,1e-4,1,0,1684
101,103,0.24992984096447346,0.5,0.75,0,0,1274
101,104,0.24992984096447346,0,1e-4,0,1,2260
101,2,0.12492984096447346,0.5,0.75,0,0,2014
101,3,0.7499298409644735,0.99999,0.75,1,1,1878
101,7,0.24992984096447346,0.5,0.9999,0,0,1903
101,8,0.37492984096447346,0.5,0.75,0,0,2250
101,12,0.49992984096447346,0.5,0.9999,0,0,11413
101,14,0.8749298409644735,0.99999,0.9999,1,1,2309
101,17,0.49992984096447346,0.5,0.5,0,1,6571
101,18,0.37492984096447346,0.5,0.75,0,0,2585
101,20,0.37492984096447346,0.5,0.25,0,1,2187
101,23,0.24992984096447346,0.5,0.5,0,0,1814
101,26,0.12492984096447346,0.99999,0.9999,0,0,2125
101,27,0.24992984096447346,0.5,0.9999,0,1,2941
101,29,0.6249298409644735,0.5,0.75,1,1,3063
101,30,0.7499298409644735,0.5,0.9999,1,1,2021
101,31,0.24992984096447346,0.99999,0.75,0,0,2595
101,33,0.6249298409644735,0.5,0.75,1,1,1983
101,35,0.7499298409644735,0.5,0.5,1,0,1824
101,38,0.8749298409644735,0.5,0.75,1,1,1522
101,39,0.8749298409644735,0.5,0.25,1,0,1503
101,40,0.7499298409644735,0.5,0.9999,1,1,1623
101,43,0.6249298409644735,0.99999,0.9999,1,1,1863
101,45,0.37492984096447346,0.99999,0.9999,0,0,3288
101,48,0.12492984096447346,0.99999,0.5,0,1,1482
101,51,0.49992984096447346,0.5,0.9999,0,0,3268
101,53,0.37492984096447346,0.5,0.9999,0,0,2113
101,54,0.12492984096447346,0.99999,0.5,0,1,1675
101,55,0.49992984096447346,0.5,0.75,0,1,3913
101,60,0.37492984096447346,0.99999,0.5,0,0,1657
101,64,0.8749298409644735,0.5,0.5,1,0,1476
101,66,0.8749298409644735,0.5,0.9999,1,0,1309
101,69,0.12492984096447346,0.99999,0.9999,0,0,1721
101,70,0.24992984096447346,0.99999,0.5,0,0,1732
101,75,0.6249298409644735,0.99999,0.9999,1,1,2264
101,76,0.49992984096447346,0.99999,0.5,0,0,4256
101,79,0.24992984096447346,0.99999,0.9999,0,0,1475
101,81,0.7499298409644735,0.99999,0.9999,1,1,1631
101,84,0.49992984096447346,0.5,0.25,0,0,2587
101,85,0.6249298409644735,0.5,0.9999,1,1,2295
101,86,0.8749298409644735,0.99999,0.9999,1,1,2434
101,87,0.49992984096447346,0.99999,0.9999,0,0,4022
101,88,0.12492984096447346,0.5,0.9999,0,0,2219
101,90,0.7499298409644735,0.99999,0.5,1,1,1590
101,91,0.8749298409644735,0.99999,0.5,1,0,1523
101,93,0.24992984096447346,0.99999,0.75,0,0,1810
101,94,0.6249298409644735,0.5,0.5,1,1,2190
101,96,0.37492984096447346,0.99999,0.9999,0,0,1676
101,100,0.37492984096447346,0.99999,0.75,0,1,1976
101,101,0.49992984096447346,0.99999,0.75,0,0,3532
101,102,0.7499298409644735,0.99999,0.25,1,0,1518
101,105,0.12492984096447346,0.99999,0.25,0,0,1338
103,1,0.6249298409644735,0.99999,0.5,1,0,80165
103,3,0.24992984096447346,0.5,0.5,0,0,272422
103,5,0.7499298409644735,0.99999,0.75,1,1,17394
103,6,0.24992984096447346,0,1e-4,0,1,9158
103,9,0.6249298409644735,0.5,0.75,1,1,55093
103,11,0.8749298409644735,0,1e-4,1,1,17610
103,13,0.49992984096447346,0,1e-4,0,1,8041
103,16,0.6249298409644735,0.5,0.25,1,0,25510
103,17,0.24992984096447346,0.99999,0.25,0,1,4888
103,18,0.6249298409644735,0,1e-4,0,0,23533
103,19,0.37492984096447346,0.99999,0.5,0,0,36928
103,20,0.37492984096447346,0.5,0.25,0,1,8835
103,22,0.12492984096447346,0,1e-4,0,1,2620
103,25,0.49992984096447346,0,1e-4,0,1,8449
103,26,0.37492984096447346,0.5,0.75,1,0,8232
103,27,0.49992984096447346,0.99999,0.75,1,1,3157
103,29,0.49992984096447346,0.5,0.5,1,0,7673
103,32,0.7499298409644735,0,1e-4,1,1,33980
103,33,0.37492984096447346,0,1e-4,0,1,6017
103,34,0.7499298409644735,0.5,0.5,1,0,7317
103,35,0.24992984096447346,0,1e-4,0,1,2634
103,37,0.7499298409644735,0,1e-4,1,1,8547
103,42,0.7499298409644735,0.99999,0.25,1,0,4976
103,45,0.37492984096447346,0.5,0.25,0,1,31435
103,48,0.8749298409644735,0.5,0.25,1,0,3854
103,49,0.7499298409644735,0.5,0.5,1,1,8542
103,52,0.8749298409644735,0.99999,0.5,1,1,3222
103,55,0.24992984096447346,0.5,0.25,0,0,51771
103,56,0.7499298409644735,0,1e-4,0,1,4434
103,58,0.6249298409644735,0.99999,0.25,0,1,2508
103,59,0.49992984096447346,0.5,0.25,0,1,1826
103,60,0.6249298409644735,0,1e-4,0,1,1613
103,61,0.8749298409644735,0.99999,0.5,1,1,2392
103,62,0.6249298409644735,0,1e-4,1,0,1864
103,63,0.12492984096447346,0,1e-4,0,0,9652
103,66,0.8749298409644735,0,1e-4,1,1,11658
103,67,0.8749298409644735,0.99999,0.25,1,1,4123
103,69,0.37492984096447346,0,1e-4,0,1,2102
103,70,0.12492984096447346,0.99999,0.75,0,0,3372
103,73,0.7499298409644735,0.5,0.75,1,1,1994
103,74,0.8749298409644735,0,1e-4,1,1,6564
103,75,0.12492984096447346,0,1e-4,0,1,1920
103,78,0.24992984096447346,0.5,0.75,0,0,2755
103,79,0.12492984096447346,0.99999,0.5,0,0,1077
103,80,0.37492984096447346,0.5,0.5,0,0,12454
103,84,0.7499298409644735,0.99999,0.5,1,1,3170
103,85,0.49992984096447346,0.99999,0.5,1,1,7026
103,86,0.49992984096447346,0.99999,0.75,1,0,13136
103,88,0.37492984096447346,0.99999,0.5,0,1,13914
103,89,0.37492984096447346,0,1e-4,0,1,636
103,90,0.12492984096447346,0.99999,0.25,0,1,3008
103,92,0.12492984096447346,0.5,0.5,0,1,1713
103,93,0.6249298409644735,0.5,0.5,1,0,7988
103,99,0.49992984096447346,0,1e-4,0,0,10635
103,102,0.24992984096447346,0,1e-4,0,0,25094
103,104,0.37492984096447346,0.99999,0.25,0,1,2029
103,2,0.12492984096447346,0.99999,0.9999,1,1,16609
103,4,0.12492984096447346,0.5,0.25,0,1,19897
103,7,0.6249298409644735,0.5,0.75,1,1,15828
103,8,0.24992984096447346,0.99999,0.75,0,0,10554
103,10,0.6249298409644735,0.5,0.25,0,0,72969
103,12,0.8749298409644735,0.5,0.75,1,1,11710
103,14,0.24992984096447346,0.5,0.5,0,0,11185
103,15,0.37492984096447346,0.5,0.75,0,0,8235
103,21,0.12492984096447346,0.5,0.25,0,1,2413
103,23,0.24992984096447346,0.5,0.9999,0,1,3662
103,24,0.8749298409644735,0.5,0.25,1,1,4712
103,28,0.6249298409644735,0.99999,0.9999,1,1,3982
103,30,0.37492984096447346,0.99999,0.9999,1,1,2004
103,31,0.7499298409644735,0.5,0.9999,1,1,1690
103,36,0.49992984096447346,0.5,0.5,0,0,3539
103,38,0.49992984096447346,0.5,0.9999,1,1,12335
103,39,0.12492984096447346,0.5,0.75,0,1,2746
103,40,0.12492984096447346,0.5,0.75,0,1,5747
103,41,0.49992984096447346,0.99999,0.25,0,0,7252
103,43,0.12492984096447346,0.99999,0.5,0,1,3947
103,44,0.49992984096447346,0.5,0.9999,1,1,32910
103,46,0.24992984096447346,0.5,0.9999,1,0,23081
103,47,0.8749298409644735,0.5,0.75,1,0,21901
103,50,0.7499298409644735,0.5,0.9999,1,1,16112
103,51,0.8749298409644735,0.99999,0.9999,1,0,15083
103,53,0.49992984096447346,0.5,0.75,0,0,6243
103,54,0.7499298409644735,0.99999,0.25,1,1,12159
103,57,0.49992984096447346,0.99999,0.25,0,1,1384
103,64,0.24992984096447346,0.99999,0.25,0,1,1365
103,65,0.24992984096447346,0.99999,0.75,0,1,4996
103,68,0.24992984096447346,0.99999,0.5,0,0,9867
103,71,0.37492984096447346,0.99999,0.75,1,1,2079
103,72,0.7499298409644735,0.99999,0.9999,1,0,4364
103,76,0.37492984096447346,0.99999,0.9999,1,1,8035
103,77,0.6249298409644735,0.99999,0.75,1,1,6376
103,81,0.7499298409644735,0.5,0.25,1,1,7575
103,82,0.12492984096447346,0.5,0.9999,0,1,3298
103,83,0.8749298409644735,0.5,0.9999,1,1,13610
103,87,0.8749298409644735,0.99999,0.75,1,0,8297
103,91,0.37492984096447346,0.5,0.9999,0,1,14347
103,94,0.12492984096447346,0.99999,0.9999,0,0,2158
103,95,0.49992984096447346,0.99999,0.9999,1,1,926
103,96,0.7499298409644735,0.99999,0.75,1,1,1567
103,97,0.6249298409644735,0.99999,0.9999,1,0,543
103,98,0.6249298409644735,0.99999,0.5,1,0,3157
103,100,0.24992984096447346,0.99999,0.9999,1,1,4897
103,101,0.8749298409644735,0.5,0.5,1,1,1871
103,103,0.6249298409644735,0.5,0.9999,1,0,2830
103,105,0.8749298409644735,0.99999,0.9999,1,1,12265
104,2,0.37492984096447346,0.5,0.25,0,1,1937
104,7,0.24992984096447346,0.5,0.5,0,1,925
104,10,0.49992984096447346,0.99999,0.75,1,1,1161
104,11,0.8749298409644735,0.5,0.25,1,0,1019
104,12,0.8749298409644735,0.5,0.75,1,1,877
104,13,0.24992984096447346,0.5,0.5,0,0,1522
104,15,0.6249298409644735,0.99999,0.5,1,1,1333
104,17,0.24992984096447346,0,1e-4,0,1,1131
104,18,0.12492984096447346,0.5,0.25,0,1,1343
104,19,0.8749298409644735,0.5,0.25,1,0,558
104,22,0.7499298409644735,0,1e-4,0,1,297
104,23,0.49992984096447346,0,1e-4,1,0,1527
104,26,0.7499298409644735,0.99999,0.25,1,0,1616
104,29,0.12492984096447346,0.5,0.75,0,0,659
104,30,0.7499298409644735,0.5,0.5,1,1,932
104,31,0.12492984096447346,0.5,0.75,0,1,771
104,33,0.6249298409644735,0.5,0.25,1,1,893
104,35,0.8749298409644735,0,1e-4,1,0,778
104,36,0.6249298409644735,0,1e-4,1,1,1112
104,37,0.12492984096447346,0.5,0.25,0,1,1309
104,38,0.49992984096447346,0.99999,0.25,0,1,2593
104,39,0.12492984096447346,0,1e-4,0,0,554
104,41,0.24992984096447346,0,1e-4,0,1,1091
104,42,0.37492984096447346,0,1e-4,0,0,719
104,45,0.7499298409644735,0,1e-4,1,0,424
104,46,0.6249298409644735,0.5,0.25,1,1,624
104,47,0.37492984096447346,0.5,0.25,0,1,1676
104,48,0.49992984096447346,0,1e-4,0,1,1267
104,49,0.37492984096447346,0.99999,0.5,0,0,1214
104,54,0.8749298409644735,0,1e-4,1,0,438
104,57,0.12492984096447346,0,1e-4,0,1,919
104,58,0.8749298409644735,0.99999,0.25,1,1,824
104,61,0.6249298409644735,0.99999,0.75,1,1,2725
104,63,0.12492984096447346,0.5,0.5,0,1,6717
104,64,0.49992984096447346,0.99999,0.25,0,1,2091
104,65,0.6249298409644735,0.5,0.5,1,1,4271
104,69,0.8749298409644735,0.99999,0.75,1,1,834
104,72,0.12492984096447346,0.99999,0.25,0,1,466
104,73,0.24992984096447346,0.99999,0.25,0,1,1100
104,74,0.7499298409644735,0,1e-4,1,0,674
104,76,0.7499298409644735,0.99999,0.75,1,1,1371
104,77,0.8749298409644735,0,1e-4,1,0,822
104,78,0.6249298409644735,0,1e-4,1,0,1523
104,79,0.7499298409644735,0.99999,0.5,1,1,1522
104,81,0.49992984096447346,0,1e-4,1,0,731
104,82,0.7499298409644735,0.99999,0.25,1,1,915
104,83,0.37492984096447346,0.99999,0.25,0,1,1468
104,84,0.49992984096447346,0.99999,0.75,0,0,7048
104,85,0.12492984096447346,0,1e-4,0,1,837
104,86,0.49992984096447346,0.5,0.25,0,0,4796
104,87,0.37492984096447346,0,1e-4,0,1,2617
104,88,0.37492984096447346,0.5,0.5,0,1,3244
104,92,0.24992984096447346,0.5,0.25,0,1,770
104,94,0.24992984096447346,0,1e-4,0,1,668
104,95,0.12492984096447346,0.99999,0.75,0,0,706
104,96,0.37492984096447346,0,1e-4,0,1,660
104,97,0.8749298409644735,0.99999,0.5,1,0,971
104,98,0.37492984096447346,0.99999,0.5,0,1,888
104,100,0.6249298409644735,0.99999,0.25,1,1,1813
104,101,0.6249298409644735,0,1e-4,1,0,1809
104,102,0.49992984096447346,0.5,0.75,0,0,8733
104,104,0.7499298409644735,0.5,0.25,1,0,4021
104,1,0.7499298409644735,0.99999,0.75,1,1,7725
104,3,0.6249298409644735,0.5,0.75,1,0,1204
104,4,0.37492984096447346,0.5,0.75,0,1,1090
104,5,0.6249298409644735,0.5,0.75,1,1,904
104,6,0.8749298409644735,0.5,0.75,1,0,835
104,8,0.24992984096447346,0.5,0.9999,0,0,791
104,9,0.49992984096447346,0.5,0.5,0,0,1254
104,14,0.8749298409644735,0.99999,0.5,1,0,669
104,16,0.24992984096447346,0.99999,0.75,0,1,955
104,20,0.49992984096447346,0.5,0.9999,0,0,3531
104,21,0.7499298409644735,0.5,0.5,1,1,458
104,24,0.7499298409644735,0.5,0.9999,1,1,915
104,25,0.12492984096447346,0.99999,0.9999,0,0,436
104,27,0.49992984096447346,0.5,0.9999,0,0,2376
104,28,0.37492984096447346,0.99999,0.9999,0,0,1628
104,32,0.12492984096447346,0.99999,0.5,0,1,849
104,34,0.24992984096447346,0.5,0.9999,0,0,629
104,40,0.49992984096447346,0.5,0.5,1,0,1290
104,43,0.24992984096447346,0.99999,0.25,0,0,733
104,44,0.37492984096447346,0.5,0.75,0,1,804
104,50,0.7499298409644735,0.5,0.9999,1,1,951
104,51,0.6249298409644735,0.99999,0.9999,1,1,1037
104,52,0.8749298409644735,0.99999,0.9999,1,1,839
104,53,0.8749298409644735,0.5,0.9999,1,1,638
104,55,0.37492984096447346,0.99999,0.9999,0,0,554
104,56,0.12492984096447346,0.5,0.9999,0,1,864
104,59,0.6249298409644735,0.5,0.9999,1,0,868
104,60,0.12492984096447346,0.99999,0.9999,0,0,329
104,62,0.24992984096447346,0.99999,0.9999,0,0,9097
104,66,0.6249298409644735,0.99999,0.9999,1,1,3273
104,67,0.7499298409644735,0.5,0.75,1,1,4102
104,68,0.37492984096447346,0.99999,0.75,0,0,4281
104,70,0.24992984096447346,0.99999,0.75,0,0,2673
104,71,0.8749298409644735,0.5,0.5,1,0,1066
104,75,0.6249298409644735,0.99999,0.5,1,0,1394
104,80,0.49992984096447346,0.99999,0.9999,0,0,1578
104,89,0.7499298409644735,0.99999,0.9999,1,1,1944
104,90,0.49992984096447346,0.99999,0.5,0,0,1311
104,91,0.37492984096447346,0.5,0.9999,0,0,1544
104,93,0.8749298409644735,0.99999,0.9999,1,1,686
104,99,0.24992984096447346,0.5,0.75,0,1,1024
104,103,0.24992984096447346,0.99999,0.5,0,1,945
104,105,0.12492984096447346,0.99999,0.5,0,1,621
105,1,0.37492984096447346,0.99999,0.5,0,0,2653
105,2,0.37492984096447346,0.5,0.25,0,1,1770
105,6,0.7499298409644735,0,1e-4,1,1,1286
105,7,0.8749298409644735,0.5,0.75,1,1,1060
105,8,0.24992984096447346,0.5,0.5,0,1,1217
105,10,0.37492984096447346,0,1e-4,0,0,1151
105,11,0.7499298409644735,0.5,0.5,1,0,948
105,14,0.24992984096447346,0.99999,0.25,0,0,1015
105,15,0.12492984096447346,0,1e-4,0,1,804
105,16,0.24992984096447346,0,1e-4,0,0,575
105,18,0.49992984096447346,0.99999,0.75,1,1,3916
105,20,0.49992984096447346,0.5,0.5,1,0,3053
105,21,0.8749298409644735,0.5,0.75,1,1,762
105,22,0.12492984096447346,0.99999,0.5,0,1,880
105,23,0.7499298409644735,0.99999,0.75,1,1,1030
105,25,0.12492984096447346,0.5,0.25,0,1,817
105,27,0.49992984096447346,0.5,0.5,0,0,3638
105,28,0.37492984096447346,0.5,0.75,0,0,1117
105,29,0.7499298409644735,0.5,0.5,1,1,1426
105,31,0.49992984096447346,0,1e-4,0,1,2265
105,33,0.8749298409644735,0.5,0.25,1,0,897
105,34,0.24992984096447346,0.5,0.5,0,0,1034
105,35,0.8749298409644735,0.5,0.25,1,1,4652
105,37,0.6249298409644735,0,1e-4,1,0,2896
105,38,0.12492984096447346,0.5,0.25,0,0,1856
105,39,0.8749298409644735,0,1e-4,1,0,981
105,41,0.24992984096447346,0,1e-4,0,0,1100
105,45,0.6249298409644735,0.5,0.75,1,1,1404
105,48,0.49992984096447346,0,1e-4,0,1,3626
105,50,0.49992984096447346,0.99999,0.25,0,1,2470
105,51,0.7499298409644735,0,1e-4,1,0,1801
105,54,0.7499298409644735,0.99999,0.25,1,1,2593
105,55,0.6249298409644735,0,1e-4,1,0,5329
105,56,0.8749298409644735,0.99999,0.25,1,1,1176
105,58,0.12492984096447346,0.5,0.5,0,1,2480
105,59,0.8749298409644735,0.5,0.5,1,0,1712
105,60,0.7499298409644735,0.99999,0.75,1,1,1425
105,64,0.37492984096447346,0,1e-4,0,1,958
105,65,0.8749298409644735,0,1e-4,1,0,706
105,66,0.24992984096447346,0.99999,0.25,0,0,1294
105,70,0.7499298409644735,0.99999,0.5,1,0,1494
105,71,0.49992984096447346,0,1e-4,0,1,2110
105,72,0.37492984096447346,0.99999,0.25,0,1,834
105,73,0.24992984096447346,0.99999,0.5,0,1,853
105,75,0.7499298409644735,0,1e-4,1,1,2168
105,76,0.37492984096447346,0,1e-4,0,1,681
105,79,0.24992984096447346,0,1e-4,0,1,463
105,80,0.8749298409644735,0,1e-4,1,1,437
105,84,0.6249298409644735,0.99999,0.5,1,1,1596
105,89,0.6249298409644735,0,1e-4,1,1,4362
105,90,0.6249298409644735,0.5,0.5,1,0,839
105,94,0.12492984096447346,0,1e-4,0,1,139
105,95,0.49992984096447346,0.5,0.25,0,0,1570
105,97,0.7499298409644735,0.5,0.25,1,0,725
105,98,0.8749298409644735,0.99999,0.5,1,0,559
105,100,0.12492984096447346,0,1e-4,0,1,480
105,103,0.6249298409644735,0.99999,0.25,0,1,3262
105,3,0.12492984096447346,0.99999,0.9999,0,0,1231
105,4,0.8749298409644735,0.99999,0.5,1,0,1622
105,5,0.37492984096447346,0.5,0.25,0,1,1509
105,9,0.6249298409644735,0.5,0.25,1,0,1150
105,12,0.6249298409644735,0.99999,0.9999,1,1,1302
105,13,0.24992984096447346,0.99999,0.75,0,0,943
105,17,0.6249298409644735,0.5,0.25,1,0,1061
105,19,0.7499298409644735,0.5,0.9999,1,1,818
105,24,0.7499298409644735,0.5,0.9999,1,1,1010
105,26,0.6249298409644735,0.5,0.75,1,0,1241
105,30,0.37492984096447346,0.5,0.75,0,1,755
105,32,0.8749298409644735,0.99999,0.9999,1,1,794
105,36,0.49992984096447346,0.5,0.9999,0,0,19573
105,40,0.12492984096447346,0.5,0.75,0,0,13726
105,42,0.12492984096447346,0.5,0.75,0,0,4796
105,43,0.6249298409644735,0.99999,0.5,1,1,5925
105,44,0.7499298409644735,0.99999,0.25,1,1,5963
105,46,0.24992984096447346,0.5,0.9999,0,0,2292
105,47,0.37492984096447346,0.99999,0.9999,0,0,3194
105,49,0.24992984096447346,0.5,0.9999,0,0,988
105,52,0.49992984096447346,0.5,0.9999,1,1,3432
105,53,0.8749298409644735,0.5,0.9999,1,1,1785
105,57,0.12492984096447346,0.99999,0.75,0,1,828
105,61,0.37492984096447346,0.99999,0.9999,0,0,7476
105,62,0.24992984096447346,0.5,0.25,0,0,1736
105,63,0.37492984096447346,0.99999,0.75,0,0,3504
105,67,0.49992984096447346,0.99999,0.25,0,1,4661
105,68,0.49992984096447346,0.5,0.75,1,1,2128
105,69,0.37492984096447346,0.5,0.9999,0,0,1841
105,74,0.49992984096447346,0.99999,0.5,1,0,3950
105,77,0.12492984096447346,0.99999,0.25,0,0,525
105,78,0.24992984096447346,0.99999,0.9999,0,0,1122
105,81,0.24992984096447346,0.99999,0.75,0,0,1185
105,82,0.12492984096447346,0.99999,0.5,0,0,689
105,83,0.49992984096447346,0.99999,0.9999,1,1,1001
105,85,0.7499298409644735,0.99999,0.9999,1,1,451
105,86,0.6249298409644735,0.99999,0.75,1,0,896
105,87,0.12492984096447346,0.99999,0.9999,0,1,775
105,88,0.8749298409644735,0.99999,0.9999,1,1,746
105,91,0.49992984096447346,0.99999,0.75,1,1,4851
105,92,0.6249298409644735,0.99999,0.9999,1,1,481
105,93,0.12492984096447346,0.5,0.9999,0,0,461
105,96,0.37492984096447346,0.5,0.5,0,1,1097
105,99,0.24992984096447346,0.5,0.75,0,1,691
105,101,0.6249298409644735,0.5,0.9999,1,1,811
105,102,0.37492984096447346,0.99999,0.5,0,0,554
105,104,0.8749298409644735,0.99999,0.75,1,1,592
105,105,0.7499298409644735,0.5,0.75,1,1,660
106,7,0.7499298409644735,0,1e-4,1,1,1534
106,9,0.37492984096447346,0.5,0.25,0,0,4940
106,10,0.12492984096447346,0.5,0.25,0,0,2328
106,11,0.8749298409644735,0,1e-4,1,0,1501
106,12,0.12492984096447346,0,1e-4,0,1,1947
106,14,0.7499298409644735,0.99999,0.75,1,1,1781
106,16,0.37492984096447346,0.5,0.25,0,1,5227
106,17,0.37492984096447346,0,1e-4,0,1,2604
106,18,0.12492984096447346,0.99999,0.5,0,0,2495
106,22,0.49992984096447346,0.99999,0.25,1,0,8446
106,24,0.6249298409644735,0.5,0.25,1,0,1947
106,27,0.8749298409644735,0.5,0.25,1,1,11188
106,28,0.49992984096447346,0,1e-4,0,1,38624
106,30,0.49992984096447346,0.5,0.5,1,0,32104
106,33,0.24992984096447346,0,1e-4,0,0,3383
106,36,0.8749298409644735,0.99999,0.5,1,1,3133
106,40,0.49992984096447346,0,1e-4,0,0,6539
106,42,0.8749298409644735,0.5,0.25,1,1,4052
106,43,0.7499298409644735,0,1e-4,1,0,7807
106,47,0.6249298409644735,0.5,0.25,0,0,12739
106,48,0.24992984096447346,0,1e-4,0,1,2990
106,50,0.37492984096447346,0.5,0.75,0,1,16864
106,51,0.6249298409644735,0,1e-4,0,1,10989
106,52,0.24992984096447346,0.99999,0.25,0,0,2488
106,54,0.7499298409644735,0,1e-4,1,1,6298
106,56,0.24992984096447346,0.5,0.75,0,1,4375
106,61,0.7499298409644735,0.99999,0.5,1,0,6443
106,62,0.6249298409644735,0.5,0.5,1,0,5609
106,63,0.8749298409644735,0,1e-4,1,1,5835
106,64,0.37492984096447346,0,1e-4,0,1,1970
106,65,0.6249298409644735,0.99999,0.25,1,1,13203
106,68,0.24992984096447346,0,1e-4,0,1,2525
106,69,0.8749298409644735,0,1e-4,1,0,3280
106,70,0.6249298409644735,0,1e-4,1,0,7908
106,71,0.8749298409644735,0.99999,0.75,1,1,1721
106,73,0.12492984096447346,0,1e-4,0,0,2368
106,74,0.12492984096447346,0,1e-4,0,1,5711
106,75,0.37492984096447346,0.99999,0.5,0,1,6456
106,79,0.8749298409644735,0.5,0.5,1,1,1127
106,81,0.37492984096447346,0.5,0.5,0,0,3951
106,83,0.8749298409644735,0.99999,0.25,1,1,1066
106,84,0.7499298409644735,0.99999,0.25,1,1,3822
106,88,0.37492984096447346,0,1e-4,0,0,4841
106,89,0.6249298409644735,0,1e-4,1,0,12622
106,90,0.7499298409644735,0.5,0.25,1,1,3629
106,91,0.37492984096447346,0.99999,0.25,0,0,2219
106,92,0.6249298409644735,0.99999,0.5,1,1,4127
106,93,0.49992984096447346,0.5,0.25,0,0,6611
106,95,0.12492984096447346,0.99999,0.25,0,1,1263
106,96,0.49992984096447346,0.99999,0.25,0,0,4068
106,97,0.24992984096447346,0.99999,0.25,0,1,1572
106,99,0.49992984096447346,0,1e-4,1,1,6474
106,101,0.24992984096447346,0.5,0.25,0,0,3229
106,1,0.7499298409644735,0.5,0.5,1,1,12032
106,2,0.12492984096447346,0.99999,0.9999,0,0,1347
106,3,0.49992984096447346,0.5,0.9999,0,0,6121
106,4,0.24992984096447346,0.5,0.5,0,0,2849
106,5,0.12492984096447346,0.5,0.75,0,1,2754
106,6,0.7499298409644735,0.5,0.9999,1,1,2852
106,8,0.24992984096447346,0.99999,0.75,0,1,4932
106,13,0.37492984096447346,0.5,0.75,0,0,4533
106,15,0.7499298409644735,0.5,0.5,1,0,1469
106,19,0.8749298409644735,0.5,0.75,1,1,1709
106,20,0.7499298409644735,0.99999,0.25,1,1,2809
106,21,0.49992984096447346,0.99999,0.75,0,0,11544
106,23,0.7499298409644735,0.5,0.9999,1,1,1947
106,25,0.24992984096447346,0.5,0.9999,0,0,1384
106,26,0.6249298409644735,0.99999,0.9999,1,1,3376
106,29,0.12492984096447346,0.5,0.75,0,0,1984
106,31,0.24992984096447346,0.5,0.9999,0,0,3006
106,32,0.49992984096447346,0.5,0.5,0,1,10636
106,34,0.37492984096447346,0.99999,0.9999,1,1,5724
106,35,0.37492984096447346,0.99999,0.5,0,0,3832
106,37,0.49992984096447346,0.5,0.9999,1,0,4389
106,38,0.6249298409644735,0.99999,0.5,1,0,21970
106,39,0.6249298409644735,0.5,0.75,1,0,2108
106,41,0.8749298409644735,0.99999,0.9999,1,1,2751
106,44,0.24992984096447346,0.5,0.5,0,0,6004
106,45,0.6249298409644735,0.5,0.75,1,1,4933
106,46,0.12492984096447346,0.5,0.25,0,0,2324
106,49,0.8749298409644735,0.5,0.75,1,1,2071
106,53,0.49992984096447346,0.99999,0.5,1,1,16755
106,55,0.24992984096447346,0.99999,0.5,0,1,5765
106,57,0.49992984096447346,0.99999,0.75,1,0,5553
106,58,0.8749298409644735,0.5,0.9999,1,0,2428
106,59,0.49992984096447346,0.99999,0.9999,1,1,6952
106,60,0.7499298409644735,0.99999,0.9999,1,1,5455
106,66,0.37492984096447346,0.5,0.9999,1,1,4848
106,67,0.49992984096447346,0.5,0.75,1,1,6408
106,72,0.8749298409644735,0.99999,0.5,1,1,2610
106,76,0.24992984096447346,0.99999,0.9999,0,0,6394
106,77,0.8749298409644735,0.99999,0.9999,1,1,1629
106,78,0.6249298409644735,0.99999,0.9999,1,0,2363
106,80,0.12492984096447346,0.99999,0.5,0,0,1389
106,82,0.24992984096447346,0.99999,0.75,0,0,1194
106,85,0.37492984096447346,0.99999,0.9999,1,1,9902
106,86,0.6249298409644735,0.5,0.9999,1,1,2704
106,87,0.12492984096447346,0.99999,0.75,0,0,4523
106,94,0.7499298409644735,0.5,0.75,1,1,1432
106,98,0.12492984096447346,0.99999,0.9999,0,0,1944
106,100,0.12492984096447346,0.5,0.9999,0,0,1276
106,102,0.7499298409644735,0.99999,0.75,1,0,1343
106,103,0.12492984096447346,0.5,0.5,0,1,1182
106,104,0.37492984096447346,0.99999,0.75,0,1,9183
106,105,0.6249298409644735,0.99999,0.75,1,1,2580
110,1,0.37492984096447346,0.5,0.25,0,1,2448
110,3,0.49992984096447346,0.5,0.5,0,1,8027
110,4,0.8749298409644735,0.5,0.25,0,0,5271
110,5,0.7499298409644735,0.5,0.5,1,1,31879
110,7,0.12492984096447346,0.5,0.25,0,0,940
110,9,0.8749298409644735,0.5,0.25,1,0,2699
110,10,0.49992984096447346,0,1e-4,0,1,3405
110,13,0.37492984096447346,0.5,0.75,0,0,4219
110,14,0.37492984096447346,0.99999,0.5,1,1,5280
110,15,0.7499298409644735,0,1e-4,1,0,7060
110,18,0.6249298409644735,0.5,0.25,0,1,5755
110,19,0.49992984096447346,0.5,0.5,0,0,6617
110,22,0.7499298409644735,0.5,0.5,1,0,2125
110,24,0.49992984096447346,0.99999,0.25,1,1,16723
110,25,0.24992984096447346,0.99999,0.25,0,0,5551
110,26,0.24992984096447346,0,1e-4,0,1,1622
110,27,0.6249298409644735,0.5,0.25,1,0,7132
110,29,0.12492984096447346,0.5,0.75,0,0,3227
110,30,0.8749298409644735,0,1e-4,1,1,4927
110,31,0.12492984096447346,0,1e-4,0,1,866
110,34,0.7499298409644735,0,1e-4,0,1,3949
110,39,0.6249298409644735,0,1e-4,0,1,6476
110,41,0.8749298409644735,0.99999,0.5,1,1,1318
110,43,0.7499298409644735,0.99999,0.25,1,0,1809
110,45,0.37492984096447346,0.5,0.25,0,1,6768
110,47,0.49992984096447346,0,1e-4,0,1,7054
110,50,0.24992984096447346,0,1e-4,0,1,957
110,51,0.37492984096447346,0,1e-4,0,1,750
110,53,0.49992984096447346,0,1e-4,0,0,1636
110,54,0.8749298409644735,0.5,0.5,1,0,8785
110,56,0.7499298409644735,0.5,0.75,1,1,3312
110,57,0.12492984096447346,0.99999,0.75,0,0,5189
110,58,0.12492984096447346,0.5,0.5,0,0,849
110,59,0.6249298409644735,0.99999,0.25,1,0,3068
110,60,0.12492984096447346,0,1e-4,0,1,783
110,62,0.37492984096447346,0,1e-4,0,1,1768
110,65,0.12492984096447346,0.99999,0.25,0,0,2827
110,66,0.12492984096447346,0,1e-4,0,1,520
110,68,0.7499298409644735,0,1e-4,1,0,2719
110,69,0.37492984096447346,0.99999,0.25,0,1,6843
110,70,0.8749298409644735,0,1e-4,0,1,4181
110,72,0.8749298409644735,0.99999,0.75,1,0,825
110,75,0.6249298409644735,0,1e-4,0,1,1425
110,76,0.6249298409644735,0,1e-4,0,0,1731
110,78,0.37492984096447346,0.5,0.5,0,0,1996
110,81,0.7499298409644735,0.5,0.25,1,0,12257
110,84,0.24992984096447346,0.5,0.25,0,1,1382
110,85,0.49992984096447346,0.5,0.25,0,1,1385
110,87,0.24992984096447346,0,1e-4,0,0,950
110,88,0.7499298409644735,0.99999,0.5,1,1,1461
110,89,0.24992984096447346,0.99999,0.75,0,1,4821
110,90,0.8749298409644735,0,1e-4,0,1,6410
110,91,0.24992984096447346,0.5,0.75,0,0,2975
110,92,0.24992984096447346,0.99999,0.25,0,1,1384
110,93,0.49992984096447346,0.99999,0.25,0,0,1612
110,96,0.37492984096447346,0.99999,0.75,1,0,4333
110,100,0.49992984096447346,0.99999,0.5,1,0,2260
110,102,0.7499298409644735,0.99999,0.25,1,0,11354
110,103,0.37492984096447346,0,1e-4,0,0,1743
110,105,0.8749298409644735,0.99999,0.25,1,0,3374
110,2,0.37492984096447346,0.99999,0.9999,1,1,2243
110,6,0.12492984096447346,0.5,0.25,0,1,1124
110,8,0.6249298409644735,0.99999,0.5,1,0,5553
110,11,0.12492984096447346,0.5,0.75,0,0,9437
110,12,0.8749298409644735,0.99999,0.9999,1,1,4422
110,16,0.8749298409644735,0.5,0.75,1,1,2594
110,17,0.49992984096447346,0.5,0.9999,1,1,2172
110,20,0.24992984096447346,0.99999,0.75,1,1,13677
110,21,0.24992984096447346,0.5,0.9999,1,0,4973
110,23,0.24992984096447346,0.5,0.9999,1,0,9182
110,28,0.7499298409644735,0.5,0.9999,1,1,1776
110,32,0.7499298409644735,0.5,0.9999,1,1,883
110,33,0.6249298409644735,0.99999,0.9999,1,1,2748
110,35,0.6249298409644735,0.5,0.75,1,1,12343
110,36,0.8749298409644735,0.5,0.75,1,1,2052
110,37,0.12492984096447346,0.99999,0.9999,0,0,11180
110,38,0.12492984096447346,0.99999,0.5,0,0,3594
110,40,0.6249298409644735,0.5,0.75,1,0,4816
110,42,0.37492984096447346,0.5,0.75,0,1,1868
110,44,0.7499298409644735,0.99999,0.75,1,1,1088
110,46,0.24992984096447346,0.5,0.5,0,1,1954
110,48,0.49992984096447346,0.99999,0.75,1,1,2530
110,49,0.24992984096447346,0.5,0.5,0,0,2265
110,52,0.49992984096447346,0.5,0.9999,1,1,6735
110,55,0.49992984096447346,0.5,0.75,0,1,2978
110,61,0.8749298409644735,0.99999,0.5,1,0,2476
110,63,0.7499298409644735,0.99999,0.75,1,1,2587
110,64,0.12492984096447346,0.99999,0.9999,1,1,7942
110,67,0.6249298409644735,0.99999,0.5,1,0,3772
110,71,0.7499298409644735,0.99999,0.9999,1,1,978
110,73,0.37492984096447346,0.99999,0.5,0,0,1786
110,74,0.24992984096447346,0.99999,0.5,0,0,1855
110,77,0.49992984096447346,0.99999,0.75,1,1,2903
110,79,0.12492984096447346,0.5,0.9999,0,0,2688
110,80,0.12492984096447346,0.99999,0.5,0,0,2082
110,82,0.24992984096447346,0.99999,0.9999,1,0,2500
110,83,0.6249298409644735,0.99999,0.9999,1,1,929
110,86,0.6249298409644735,0.99999,0.75,1,1,1767
110,94,0.49992984096447346,0.99999,0.9999,1,1,1555
110,95,0.6249298409644735,0.5,0.9999,1,1,4328
110,97,0.37492984096447346,0.5,0.9999,0,0,6270
110,98,0.8749298409644735,0.99999,0.9999,1,1,2488
110,99,0.8749298409644735,0.5,0.9999,1,1,2673
110,101,0.37492984096447346,0.99999,0.9999,1,1,3598
110,104,0.6249298409644735,0.5,0.5,1,0,12046
112,1,0.8749298409644735,0.5,0.25,1,0,14729
112,2,0.37492984096447346,0.5,0.25,0,0,1329
112,5,0.6249298409644735,0,1e-4,0,0,1759
112,6,0.7499298409644735,0,1e-4,0,1,1051
112,10,0.7499298409644735,0,1e-4,0,0,1119
112,12,0.12492984096447346,0,1e-4,0,1,961
112,14,0.24992984096447346,0,1e-4,0,1,761
112,17,0.24992984096447346,0.5,0.5,0,0,2572
112,19,0.49992984096447346,0,1e-4,0,1,1174
112,21,0.6249298409644735,0.5,0.25,0,1,2830
112,23,0.37492984096447346,0.99999,0.5,0,1,2851
112,24,0.49992984096447346,0.99999,0.25,0,1,1416
112,30,0.49992984096447346,0,1e-4,0,0,1095
112,32,0.37492984096447346,0,1e-4,0,1,3393
112,36,0.7499298409644735,0.99999,0.25,0,1,4169
112,37,0.24992984096447346,0.99999,0.25,0,0,1495
112,42,0.12492984096447346,0.5,0.25,0,0,1009
112,43,0.8749298409644735,0.5,0.25,1,0,2325
112,44,0.37492984096447346,0.5,0.25,0,0,1778
112,45,0.7499298409644735,0.99999,0.75,1,1,884
112,48,0.12492984096447346,0.5,0.25,0,1,1046
112,51,0.8749298409644735,0,1e-4,0,0,4447
112,52,0.24992984096447346,0,1e-4,0,0,2319
112,54,0.37492984096447346,0,1e-4,0,1,950
112,56,0.7499298409644735,0.5,0.75,1,1,4483
112,57,0.49992984096447346,0.99999,0.5,1,0,3550
112,58,0.6249298409644735,0,1e-4,0,1,1557
112,60,0.37492984096447346,0,1e-4,0,0,2729
112,64,0.24992984096447346,0.99999,0.75,1,1,4608
112,65,0.24992984096447346,0.99999,0.25,0,1,1993
112,66,0.6249298409644735,0.99999,0.25,0,1,1154
112,69,0.24992984096447346,0.99999,0.5,0,0,1480
112,73,0.7499298409644735,0.5,0.25,0,0,859
112,74,0.24992984096447346,0.5,0.75,1,1,672
112,77,0.12492984096447346,0.99999,0.25,0,0,4578
112,78,0.37492984096447346,0.5,0.5,0,1,2267
112,81,0.6249298409644735,0.5,0.5,1,1,2421
112,82,0.24992984096447346,0,1e-4,0,1,1721
112,84,0.7499298409644735,0,1e-4,0,0,16266
112,87,0.8749298409644735,0,1e-4,0,1,1676
112,88,0.12492984096447346,0,1e-4,0,0,3252
112,91,0.24992984096447346,0.5,0.25,0,1,3587
112,93,0.6249298409644735,0.99999,0.5,1,0,3031
112,94,0.7499298409644735,0.99999,0.25,0,0,2066
112,99,0.49992984096447346,0,1e-4,0,1,970
112,101,0.49992984096447346,0.99999,0.25,0,0,496
112,102,0.8749298409644735,0,1e-4,0,1,646
112,103,0.12492984096447346,0,1e-4,0,1,257
112,105,0.6249298409644735,0,1e-4,0,1,1225
112,3,0.6249298409644735,0.99999,0.5,1,0,3422
112,4,0.24992984096447346,0.5,0.5,0,1,3881
112,7,0.12492984096447346,0.5,0.75,0,0,3390
112,8,0.6249298409644735,0.99999,0.9999,1,1,5408
112,9,0.49992984096447346,0.5,0.5,1,0,4567
112,11,0.7499298409644735,0.5,0.5,1,1,1633
112,13,0.7499298409644735,0.5,0.5,1,0,1909
112,15,0.8749298409644735,0.99999,0.5,1,1,2518
112,16,0.37492984096447346,0.5,0.75,1,1,5908
112,18,0.12492984096447346,0.99999,0.9999,1,1,3218
112,20,0.37492984096447346,0.5,0.75,1,1,4202
112,22,0.24992984096447346,0.99999,0.75,1,0,5957
112,25,0.7499298409644735,0.5,0.9999,1,0,1487
112,26,0.6249298409644735,0.5,0.75,1,0,6768
112,27,0.12492984096447346,0.5,0.75,0,0,3775
112,28,0.8749298409644735,0.99999,0.9999,1,1,1831
112,29,0.6249298409644735,0.5,0.75,1,1,1292
112,31,0.49992984096447346,0.5,0.9999,1,1,1045
112,33,0.12492984096447346,0.99999,0.5,0,0,1577
112,34,0.49992984096447346,0.99999,0.75,1,1,7232
112,35,0.24992984096447346,0.5,0.9999,1,1,1642
112,38,0.8749298409644735,0.5,0.75,1,1,900
112,39,0.7499298409644735,0.5,0.9999,1,0,2562
112,40,0.24992984096447346,0.5,0.9999,1,0,1945
112,41,0.37492984096447346,0.99999,0.9999,1,1,1318
112,46,0.8749298409644735,0.5,0.75,1,0,1695
112,47,0.49992984096447346,0.5,0.9999,1,1,2170
112,49,0.6249298409644735,0.5,0.25,0,0,1311
112,50,0.49992984096447346,0.5,0.5,1,0,4436
112,53,0.37492984096447346,0.99999,0.75,1,1,2004
112,55,0.12492984096447346,0.99999,0.75,1,1,907
112,59,0.12492984096447346,0.99999,0.9999,1,1,1332
112,61,0.12492984096447346,0.5,0.5,0,1,2493
112,62,0.6249298409644735,0.5,0.9999,1,1,780
112,63,0.37492984096447346,0.99999,0.5,0,1,4489
112,67,0.49992984096447346,0.99999,0.75,1,1,430
112,68,0.12492984096447346,0.5,0.9999,1,1,385
112,70,0.24992984096447346,0.99999,0.9999,0,0,2273
112,71,0.7499298409644735,0.99999,0.5,1,1,3027
112,72,0.8749298409644735,0.99999,0.9999,1,1,1803
112,75,0.7499298409644735,0.99999,0.75,1,1,714
112,76,0.49992984096447346,0.5,0.25,0,1,1657
112,79,0.12492984096447346,0.99999,0.5,0,0,765
112,80,0.6249298409644735,0.99999,0.9999,1,1,676
112,83,0.37492984096447346,0.99999,0.25,0,0,2707
112,85,0.49992984096447346,0.99999,0.9999,1,1,822
112,86,0.8749298409644735,0.99999,0.75,1,0,2957
112,89,0.37492984096447346,0.99999,0.9999,1,1,4967
112,90,0.37492984096447346,0.5,0.9999,1,1,2816
112,92,0.8749298409644735,0.5,0.9999,1,1,717
112,95,0.7499298409644735,0.99999,0.9999,1,1,984
112,96,0.8749298409644735,0.99999,0.25,0,0,570
112,97,0.8749298409644735,0.99999,0.5,1,1,3946
112,98,0.8749298409644735,0.5,0.5,1,1,1619
112,100,0.6249298409644735,0.99999,0.75,1,0,3743
112,104,0.49992984096447346,0.5,0.75,1,1,874
113,3,0.6249298409644735,0,1e-4,1,0,1434
113,4,0.12492984096447346,0.5,0.25,0,1,5643
113,6,0.8749298409644735,0.5,0.25,1,1,12398
113,7,0.8749298409644735,0.5,0.25,1,0,3319
113,9,0.49992984096447346,0,1e-4,0,1,18268
113,10,0.37492984096447346,0,1e-4,0,1,2783
113,11,0.37492984096447346,0.5,0.25,0,1,14190
113,16,0.37492984096447346,0.5,0.75,0,0,2422
113,18,0.6249298409644735,0.5,0.75,1,1,3964
113,20,0.24992984096447346,0,1e-4,0,1,4085
113,21,0.12492984096447346,0,1e-4,0,1,1049
113,22,0.49992984096447346,0.5,0.5,1,1,14895
113,24,0.49992984096447346,0.99999,0.25,0,0,3886
113,25,0.37492984096447346,0.99999,0.5,0,0,4276
113,26,0.24992984096447346,0,1e-4,0,1,4701
113,29,0.12492984096447346,0.5,0.25,0,0,13339
113,30,0.6249298409644735,0.5,0.25,1,1,1907
113,32,0.7499298409644735,0.5,0.5,1,0,3107
113,33,0.49992984096447346,0,1e-4,0,1,3514
113,34,0.49992984096447346,0.99999,0.75,1,1,7338
113,36,0.37492984096447346,0.5,0.25,0,0,2186
113,38,0.7499298409644735,0,1e-4,1,0,28243
113,44,0.6249298409644735,0.5,0.25,1,1,2399
113,47,0.7499298409644735,0,1e-4,1,0,1936
113,51,0.8749298409644735,0,1e-4,1,0,3374
113,55,0.6249298409644735,0.99999,0.25,0,1,2857
113,57,0.49992984096447346,0,1e-4,0,1,5602
113,58,0.8749298409644735,0.5,0.5,0,1,7399
113,60,0.12492984096447346,0.5,0.5,1,0,2702
113,61,0.37492984096447346,0,1e-4,0,1,3957
113,62,0.8749298409644735,0,1e-4,0,0,7355
113,63,0.49992984096447346,0.99999,0.75,1,1,10020
113,66,0.8749298409644735,0.99999,0.75,0,0,3724
113,67,0.24992984096447346,0.5,0.25,1,1,5688
113,68,0.24992984096447346,0.99999,0.25,0,1,15916
113,70,0.8749298409644735,0.99999,0.5,1,1,7927
113,72,0.49992984096447346,0.99999,0.25,0,0,4807
113,74,0.12492984096447346,0.99999,0.25,0,1,4149
113,75,0.6249298409644735,0,1e-4,0,1,27870
113,77,0.7499298409644735,0,1e-4,0,1,3000
113,79,0.37492984096447346,0.99999,0.25,0,0,1521
113,80,0.37492984096447346,0.99999,0.5,0,0,3633
113,81,0.49992984096447346,0.5,0.25,0,1,3804
113,83,0.49992984096447346,0.5,0.75,1,1,13423
113,84,0.24992984096447346,0,1e-4,0,0,2532
113,86,0.8749298409644735,0,1e-4,0,0,14113
113,87,0.6249298409644735,0.99999,0.5,1,1,2790
113,90,0.7499298409644735,0.5,0.25,0,1,2284
113,91,0.37492984096447346,0.5,0.5,0,1,6238
113,94,0.12492984096447346,0,1e-4,0,1,7839
113,95,0.6249298409644735,0,1e-4,0,0,9181
113,96,0.37492984096447346,0,1e-4,0,1,4039
113,99,0.12492984096447346,0,1e-4,0,0,1608
113,1,0.6249298409644735,0.99999,0.5,1,1,13778
113,2,0.37492984096447346,0.5,0.75,0,0,15486
113,5,0.12492984096447346,0.99999,0.5,0,1,6628
113,8,0.12492984096447346,0.5,0.75,0,1,15281
113,12,0.7499298409644735,0.5,0.5,1,1,1530
113,13,0.6249298409644735,0.5,0.75,1,0,3538
113,14,0.7499298409644735,0.99999,0.75,1,0,3443
113,15,0.7499298409644735,0.5,0.9999,1,1,3054
113,17,0.24992984096447346,0.99999,0.75,1,1,13212
113,19,0.8749298409644735,0.99999,0.9999,1,1,2482
113,23,0.49992984096447346,0.5,0.9999,1,1,4337
113,27,0.24992984096447346,0.5,0.9999,0,1,16689
113,28,0.24992984096447346,0.5,0.9999,1,1,9340
113,31,0.49992984096447346,0.5,0.5,0,1,6185
113,35,0.8749298409644735,0.99999,0.5,1,0,1803
113,37,0.24992984096447346,0.99999,0.25,0,1,1137
113,39,0.49992984096447346,0.5,0.9999,1,0,2403
113,40,0.8749298409644735,0.5,0.75,1,0,5005
113,41,0.24992984096447346,0.5,0.5,0,1,2107
113,42,0.12492984096447346,0.99999,0.9999,1,1,3770
113,43,0.12492984096447346,0.5,0.75,0,1,5052
113,45,0.7499298409644735,0.99999,0.25,1,0,2180
113,46,0.8749298409644735,0.5,0.75,1,1,7188
113,48,0.7499298409644735,0.5,0.9999,1,0,32692
113,49,0.6249298409644735,0.99999,0.9999,1,1,5732
113,50,0.24992984096447346,0.5,0.5,0,0,1931
113,52,0.37492984096447346,0.99999,0.9999,1,1,26021
113,53,0.8749298409644735,0.99999,0.9999,1,0,2362
113,54,0.6249298409644735,0.99999,0.75,1,1,3397
113,56,0.12492984096447346,0.99999,0.75,1,0,7102
113,59,0.12492984096447346,0.99999,0.5,1,1,8958
113,64,0.6249298409644735,0.5,0.5,1,0,11300
113,65,0.8749298409644735,0.99999,0.25,0,1,2917
113,69,0.12492984096447346,0.99999,0.9999,0,0,4080
113,71,0.37492984096447346,0.99999,0.75,0,0,1757
113,73,0.6249298409644735,0.5,0.9999,1,0,3015
113,76,0.49992984096447346,0.99999,0.5,1,1,39539
113,78,0.7499298409644735,0.99999,0.25,1,0,8165
113,82,0.24992984096447346,0.99999,0.5,1,1,16178
113,85,0.24992984096447346,0.99999,0.9999,1,1,13211
113,88,0.7499298409644735,0.99999,0.75,0,0,4691
113,89,0.8749298409644735,0.5,0.9999,0,0,3344
113,92,0.7499298409644735,0.5,0.75,1,0,6715
113,93,0.6249298409644735,0.99999,0.9999,1,1,4145
113,97,0.24992984096447346,0.99999,0.75,0,1,9988
113,98,0.37492984096447346,0.5,0.9999,1,1,7037
113,100,0.12492984096447346,0.5,0.9999,1,1,4849
113,101,0.24992984096447346,0.5,0.75,1,0,3275
113,102,0.49992984096447346,0.99999,0.9999,1,1,15097
113,103,0.37492984096447346,0.99999,0.9999,1,1,20009
113,104,0.7499298409644735,0.99999,0.5,1,1,1322
113,105,0.7499298409644735,0.99999,0.9999,1,1,869
116,3,0.6249298409644735,0.5,0.25,1,0,2692
116,4,0.12492984096447346,0,1e-4,0,1,2281
116,5,0.12492984096447346,0.99999,0.5,0,0,3123
116,8,0.7499298409644735,0,1e-4,0,0,9065
116,10,0.7499298409644735,0.5,0.5,1,0,2652
116,12,0.49992984096447346,0,1e-4,1,0,4281
116,14,0.37492984096447346,0.5,0.25,0,1,6024
116,15,0.24992984096447346,0,1e-4,0,1,2501
116,17,0.6249298409644735,0.99999,0.5,1,1,6657
116,19,0.24992984096447346,0,1e-4,0,1,2378
116,21,0.24992984096447346,0.99999,0.25,0,1,2588
116,26,0.8749298409644735,0.5,0.25,1,1,12826
116,28,0.12492984096447346,0.5,0.75,0,0,4041
116,29,0.6249298409644735,0.5,0.25,0,0,6874
116,32,0.6249298409644735,0,1e-4,0,1,15401
116,33,0.49992984096447346,0.99999,0.75,1,1,4440
116,36,0.7499298409644735,0,1e-4,1,0,3465
116,37,0.24992984096447346,0.5,0.5,0,0,5352
116,40,0.49992984096447346,0.5,0.5,1,1,8591
116,41,0.8749298409644735,0,1e-4,1,0,3753
116,43,0.37492984096447346,0.5,0.75,1,1,6306
116,45,0.37492984096447346,0,1e-4,0,1,2224
116,47,0.49992984096447346,0.99999,0.25,0,0,3478
116,49,0.6249298409644735,0.5,0.75,0,1,6394
116,52,0.49992984096447346,0,1e-4,0,0,5175
116,57,0.6249298409644735,0.99999,0.5,1,0,2923
116,62,0.7499298409644735,0,1e-4,1,0,3410
116,63,0.8749298409644735,0.99999,0.5,1,0,1772
116,66,0.7499298409644735,0.99999,0.25,1,0,5061
116,68,0.6249298409644735,0,1e-4,0,1,12713
116,70,0.12492984096447346,0.99999,0.25,0,0,2106
116,71,0.8749298409644735,0,1e-4,0,1,16307
116,74,0.8749298409644735,0,1e-4,0,0,2935
116,77,0.7499298409644735,0.5,0.75,1,0,3480
116,78,0.6249298409644735,0.99999,0.25,1,0,5969
116,79,0.24992984096447346,0.99999,0.25,0,1,2552
116,80,0.37492984096447346,0.99999,0.25,1,0,4894
116,81,0.6249298409644735,0,1e-4,0,1,2098
116,82,0.7499298409644735,0.99999,0.5,1,1,3688
116,83,0.12492984096447346,0,1e-4,0,1,2127
116,87,0.7499298409644735,0.5,0.25,1,1,5345
116,90,0.49992984096447346,0.99999,0.5,1,0,5364
116,94,0.49992984096447346,0,1e-4,0,1,2565
116,95,0.12492984096447346,0.5,0.5,0,1,1971
116,96,0.24992984096447346,0,1e-4,0,1,2247
116,97,0.12492984096447346,0,1e-4,0,1,1864
116,98,0.24992984096447346,0.5,0.25,0,1,2033
116,99,0.49992984096447346,0.99999,0.75,1,0,2792
116,100,0.6249298409644735,0.5,0.5,1,1,5063
116,102,0.37492984096447346,0,1e-4,0,1,2453
116,105,0.37492984096447346,0,1e-4,0,1,1384
116,1,0.49992984096447346,0.5,0.9999,1,1,2801
116,2,0.12492984096447346,0.5,0.25,0,1,1675
116,6,0.37492984096447346,0.99999,0.5,0,0,5702
116,7,0.12492984096447346,0.5,0.25,0,0,2836
116,9,0.12492984096447346,0.5,0.75,0,1,11710
116,11,0.7499298409644735,0.99999,0.25,1,1,10727
116,13,0.37492984096447346,0.99999,0.9999,1,1,5026
116,16,0.12492984096447346,0.99999,0.9999,0,1,15101
116,18,0.49992984096447346,0.5,0.9999,1,1,3725
116,20,0.6249298409644735,0.5,0.75,1,1,6135
116,22,0.8749298409644735,0.99999,0.9999,1,1,4752
116,23,0.49992984096447346,0.5,0.5,0,0,10497
116,24,0.6249298409644735,0.99999,0.9999,1,1,2355
116,25,0.24992984096447346,0.5,0.5,0,0,3555
116,27,0.7499298409644735,0.99999,0.75,1,1,2708
116,30,0.24992984096447346,0.99999,0.75,0,1,25509
116,31,0.37492984096447346,0.5,0.75,0,1,13317
116,34,0.7499298409644735,0.5,0.9999,1,0,3284
116,35,0.24992984096447346,0.5,0.9999,0,0,4823
116,38,0.8749298409644735,0.5,0.25,1,1,5901
116,39,0.7499298409644735,0.5,0.9999,1,1,12877
116,42,0.8749298409644735,0.5,0.75,1,1,5049
116,44,0.8749298409644735,0.5,0.75,1,1,5072
116,46,0.24992984096447346,0.5,0.9999,0,1,4258
116,48,0.37492984096447346,0.5,0.25,0,0,4237
116,50,0.7499298409644735,0.5,0.5,0,0,1785
116,51,0.8749298409644735,0.99999,0.5,1,0,2187
116,53,0.37492984096447346,0.5,0.5,0,0,5744
116,54,0.12492984096447346,0.99999,0.5,0,0,4299
116,55,0.8749298409644735,0.99999,0.25,1,1,2743
116,56,0.24992984096447346,0.99999,0.5,1,0,2140
116,58,0.6249298409644735,0.99999,0.9999,1,1,2248
116,59,0.37492984096447346,0.5,0.9999,0,0,3540
116,60,0.24992984096447346,0.99999,0.9999,1,1,3848
116,61,0.49992984096447346,0.5,0.25,0,1,2661
116,64,0.7499298409644735,0.99999,0.75,1,1,1004
116,65,0.8749298409644735,0.5,0.9999,1,1,2413
116,67,0.49992984096447346,0.99999,0.25,0,1,1872
116,69,0.49992984096447346,0.5,0.75,1,1,5182
116,72,0.8749298409644735,0.99999,0.9999,1,1,2373
116,73,0.12492984096447346,0.5,0.9999,0,0,4464
116,75,0.12492984096447346,0.99999,0.9999,1,0,7730
116,76,0.24992984096447346,0.99999,0.75,0,0,4278
116,84,0.12492984096447346,0.99999,0.75,1,1,5592
116,85,0.7499298409644735,0.99999,0.9999,1,0,2288
116,86,0.37492984096447346,0.99999,0.9999,1,1,2848
116,88,0.49992984096447346,0.99999,0.9999,1,1,2502
116,89,0.8749298409644735,0.99999,0.75,1,1,1536
116,91,0.37492984096447346,0.99999,0.5,0,0,5762
116,92,0.8749298409644735,0.5,0.5,1,1,2600
116,93,0.24992984096447346,0.5,0.75,0,0,3458
116,101,0.37492984096447346,0.99999,0.75,1,1,3175
116,103,0.6249298409644735,0.5,0.9999,1,1,4344
116,104,0.6249298409644735,0.99999,0.75,1,0,2877
121,2,0.7499298409644735,0,1e-4,1,0,2414
121,4,0.6249298409644735,0.5,0.25,0,1,2194
121,5,0.7499298409644735,0.99999,0.25,1,0,1544
121,10,0.12492984096447346,0,1e-4,0,1,847
121,16,0.49992984096447346,0.5,0.5,0,0,4990
121,19,0.24992984096447346,0.99999,0.25,0,1,963
121,21,0.24992984096447346,0,1e-4,0,1,997
121,25,0.8749298409644735,0.5,0.75,1,0,792
121,26,0.6249298409644735,0.5,0.25,1,0,1529
121,31,0.6249298409644735,0.99999,0.5,1,0,904
121,32,0.8749298409644735,0,1e-4,1,0,7548
121,33,0.37492984096447346,0.99999,0.5,1,1,2119
121,36,0.49992984096447346,0.99999,0.25,0,0,916
121,39,0.24992984096447346,0.5,0.5,0,1,2539
121,40,0.8749298409644735,0.5,0.25,1,0,3149
121,41,0.49992984096447346,0,1e-4,0,1,694
121,42,0.37492984096447346,0,1e-4,0,0,758
121,44,0.6249298409644735,0,1e-4,0,1,1493
121,45,0.7499298409644735,0,1e-4,0,1,11686
121,46,0.49992984096447346,0,1e-4,0,0,2024
121,48,0.24992984096447346,0,1e-4,0,1,752
121,49,0.37492984096447346,0.5,0.75,0,0,1627
121,50,0.7499298409644735,0.5,0.5,1,0,823
121,54,0.37492984096447346,0.99999,0.25,0,1,762
121,55,0.49992984096447346,0,1e-4,0,1,638
121,58,0.49992984096447346,0.99999,0.5,1,1,2523
121,59,0.7499298409644735,0.5,0.25,0,0,2574
121,62,0.6249298409644735,0,1e-4,0,0,976
121,66,0.24992984096447346,0.5,0.25,0,1,878
121,67,0.49992984096447346,0.5,0.25,0,1,948
121,68,0.24992984096447346,0.99999,0.25,0,1,950
121,69,0.24992984096447346,0,1e-4,0,1,988
121,70,0.12492984096447346,0.99999,0.25,0,1,677
121,71,0.6249298409644735,0.5,0.5,0,1,812
121,74,0.12492984096447346,0.5,0.5,0,0,796
121,75,0.12492984096447346,0,1e-4,0,1,606
121,76,0.6249298409644735,0.99999,0.25,0,1,817
121,78,0.8749298409644735,0,1e-4,1,0,984
121,79,0.7499298409644735,0.99999,0.25,0,0,1392
121,81,0.7499298409644735,0.99999,0.5,1,1,642
121,83,0.37492984096447346,0,1e-4,0,1,601
121,87,0.8749298409644735,0.99999,0.25,1,0,1205
121,89,0.49992984096447346,0.99999,0.25,0,0,874
121,90,0.7499298409644735,0,1e-4,1,1,1103
121,91,0.6249298409644735,0,1e-4,0,1,759
121,94,0.37492984096447346,0.5,0.5,0,0,910
121,96,0.37492984096447346,0,1e-4,0,1,645
121,97,0.24992984096447346,0.99999,0.75,1,1,930
121,100,0.8749298409644735,0,1e-4,0,1,1033
121,104,0.12492984096447346,0,1e-4,0,1,540
121,105,0.6249298409644735,0.99999,0.5,1,1,1650
121,1,0.12492984096447346,0.5,0.25,0,1,1095
121,3,0.8749298409644735,0.5,0.75,1,1,1079
121,6,0.37492984096447346,0.5,0.25,0,1,1506
121,7,0.8749298409644735,0.99999,0.5,1,1,2174
121,8,0.24992984096447346,0.5,0.5,0,1,3273
121,9,0.12492984096447346,0.99999,0.9999,1,1,14068
121,11,0.12492984096447346,0.5,0.75,0,0,1888
121,12,0.8749298409644735,0.5,0.25,1,0,1528
121,13,0.37492984096447346,0.5,0.25,0,0,930
121,14,0.12492984096447346,0.99999,0.5,0,1,5823
121,15,0.49992984096447346,0.5,0.9999,1,1,1094
121,17,0.37492984096447346,0.5,0.75,0,0,3991
121,18,0.6249298409644735,0.5,0.75,1,1,1769
121,20,0.49992984096447346,0.99999,0.75,1,1,925
121,22,0.7499298409644735,0.5,0.9999,1,1,639
121,23,0.49992984096447346,0.5,0.5,0,0,1466
121,24,0.6249298409644735,0.5,0.75,1,1,385
121,27,0.49992984096447346,0.5,0.9999,1,1,882
121,28,0.12492984096447346,0.5,0.75,0,0,1202
121,29,0.24992984096447346,0.99999,0.75,1,1,2383
121,30,0.7499298409644735,0.5,0.9999,1,0,725
121,34,0.12492984096447346,0.5,0.25,0,0,1361
121,35,0.8749298409644735,0.99999,0.9999,1,1,985
121,37,0.6249298409644735,0.99999,0.9999,1,1,848
121,38,0.24992984096447346,0.5,0.9999,0,0,3984
121,43,0.37492984096447346,0.99999,0.9999,1,0,792
121,47,0.7499298409644735,0.99999,0.75,1,1,590
121,51,0.7499298409644735,0.5,0.5,1,1,1002
121,52,0.24992984096447346,0.5,0.9999,1,1,1484
121,53,0.8749298409644735,0.99999,0.9999,1,1,705
121,56,0.6249298409644735,0.99999,0.9999,1,1,731
121,57,0.12492984096447346,0.99999,0.9999,0,0,1006
121,60,0.8749298409644735,0.99999,0.75,1,1,774
121,61,0.12492984096447346,0.5,0.9999,0,0,1825
121,63,0.7499298409644735,0.99999,0.75,1,1,734
121,64,0.8749298409644735,0.5,0.5,1,0,1608
121,65,0.49992984096447346,0.5,0.75,1,1,713
121,72,0.7499298409644735,0.5,0.75,1,1,647
121,73,0.37492984096447346,0.5,0.9999,0,0,1076
121,77,0.12492984096447346,0.99999,0.5,0,0,1482
121,80,0.7499298409644735,0.99999,0.9999,1,0,551
121,82,0.6249298409644735,0.99999,0.75,1,0,96
121,84,0.37492984096447346,0.99999,0.5,0,1,741
121,85,0.8749298409644735,0.99999,0.5,1,0,811
121,86,0.49992984096447346,0.99999,0.9999,1,1,873
121,88,0.24992984096447346,0.99999,0.5,1,1,1159
121,92,0.49992984096447346,0.99999,0.75,1,1,863
121,93,0.12492984096447346,0.99999,0.75,0,0,1192
121,95,0.37492984096447346,0.99999,0.9999,1,1,612
121,98,0.8749298409644735,0.5,0.9999,1,1,749
121,99,0.6249298409644735,0.5,0.9999,1,1,416
121,101,0.37492984096447346,0.99999,0.75,1,0,676
121,102,0.24992984096447346,0.5,0.75,0,0,948
121,103,0.24992984096447346,0.99999,0.9999,1,1,795
125,1,0.6249298409644735,0,1e-4,1,1,18859
125,3,0.7499298409644735,0.5,0.5,1,1,5241
125,10,0.7499298409644735,0.5,0.5,1,0,1932
125,11,0.37492984096447346,0.5,0.25,0,1,45784
125,12,0.12492984096447346,0.5,0.25,0,1,1264
125,17,0.12492984096447346,0.5,0.25,0,0,12427
125,19,0.24992984096447346,0,1e-4,0,1,5204
125,21,0.8749298409644735,0.5,0.25,1,1,8175
125,24,0.8749298409644735,0.5,0.25,1,1,6509
125,25,0.8749298409644735,0,1e-4,1,0,14707
125,30,0.6249298409644735,0.5,0.25,0,1,9342
125,31,0.6249298409644735,0.5,0.25,1,0,6469
125,32,0.49992984096447346,0.99999,0.25,1,0,9007
125,34,0.12492984096447346,0.5,0.75,0,1,8352
125,35,0.37492984096447346,0.5,0.75,0,1,5724
125,36,0.49992984096447346,0,1e-4,0,0,12933
125,37,0.7499298409644735,0.99999,0.25,1,0,3463
125,38,0.24992984096447346,0.99999,0.75,1,0,11427
125,40,0.7499298409644735,0,1e-4,1,1,6238
125,41,0.12492984096447346,0.5,0.75,0,0,5679
125,43,0.49992984096447346,0.5,0.5,0,1,33367
125,46,0.24992984096447346,0,1e-4,0,1,1208
125,47,0.7499298409644735,0,1e-4,0,1,692
125,48,0.49992984096447346,0,1e-4,0,1,2328
125,50,0.37492984096447346,0,1e-4,0,1,1487
125,52,0.12492984096447346,0,1e-4,0,1,1389
125,54,0.7499298409644735,0.5,0.75,1,0,3553
125,56,0.24992984096447346,0.5,0.25,0,1,1734
125,58,0.24992984096447346,0.99999,0.25,0,1,1293
125,59,0.37492984096447346,0.5,0.5,0,1,6328
125,62,0.37492984096447346,0,1e-4,0,0,531
125,63,0.12492984096447346,0,1e-4,0,1,553
125,64,0.12492984096447346,0.99999,0.25,0,1,2995
125,65,0.24992984096447346,0,1e-4,0,0,1113
125,68,0.7499298409644735,0.5,0.25,0,0,3291
125,70,0.8749298409644735,0,1e-4,0,1,11417
125,71,0.37492984096447346,0.99999,0.75,1,1,4966
125,74,0.12492984096447346,0.99999,0.5,0,0,3016
125,75,0.7499298409644735,0,1e-4,1,1,5738
125,79,0.6249298409644735,0,1e-4,0,1,10638
125,82,0.49992984096447346,0,1e-4,0,0,9151
125,86,0.37492984096447346,0,1e-4,0,1,2214
125,87,0.6249298409644735,0,1e-4,0,0,5763
125,88,0.8749298409644735,0.99999,0.75,1,0,753
125,90,0.49992984096447346,0.5,0.25,0,0,691
125,97,0.12492984096447346,0,1e-4,0,1,974
125,99,0.7499298409644735,0.99999,0.5,1,1,804
125,101,0.8749298409644735,0,1e-4,0,1,2020
125,102,0.37492984096447346,0.99999,0.25,0,1,17906
125,103,0.8749298409644735,0.5,0.5,1,0,4471
125,104,0.6249298409644735,0.99999,0.5,1,1,2306
125,105,0.6249298409644735,0.5,0.5,1,1,22214
125,2,0.49992984096447346,0.99999,0.75,1,0,23971
125,4,0.49992984096447346,0.5,0.5,1,1,7908
125,5,0.37492984096447346,0.5,0.75,0,0,8681
125,6,0.8749298409644735,0.99999,0.9999,1,0,1482
125,7,0.6249298409644735,0.5,0.75,1,1,10387
125,8,0.24992984096447346,0.5,0.9999,0,0,12107
125,9,0.24992984096447346,0.99999,0.25,0,1,9349
125,13,0.24992984096447346,0.5,0.5,0,0,904
125,14,0.8749298409644735,0.99999,0.5,1,1,3828
125,15,0.37492984096447346,0.99999,0.5,1,0,10075
125,16,0.8749298409644735,0.5,0.75,1,1,9381
125,18,0.12492984096447346,0.99999,0.9999,1,1,2094
125,20,0.49992984096447346,0.5,0.9999,1,1,15736
125,22,0.6249298409644735,0.5,0.75,1,1,6106
125,23,0.7499298409644735,0.5,0.9999,1,1,8408
125,26,0.49992984096447346,0.5,0.9999,1,1,5605
125,27,0.12492984096447346,0.99999,0.5,0,1,2929
125,28,0.37492984096447346,0.99999,0.9999,1,0,3782
125,29,0.37492984096447346,0.5,0.25,0,1,1923
125,33,0.6249298409644735,0.99999,0.5,1,0,10978
125,39,0.7499298409644735,0.99999,0.75,1,1,4679
125,42,0.6249298409644735,0.99999,0.9999,1,1,5718
125,44,0.8749298409644735,0.5,0.75,1,1,2454
125,45,0.24992984096447346,0.5,0.5,0,1,1946
125,49,0.24992984096447346,0.5,0.9999,0,0,7319
125,51,0.7499298409644735,0.5,0.9999,1,1,3457
125,53,0.49992984096447346,0.99999,0.25,0,0,5462
125,55,0.8749298409644735,0.99999,0.9999,1,1,3726
125,57,0.8749298409644735,0.99999,0.5,1,1,7007
125,60,0.37492984096447346,0.5,0.9999,0,0,2487
125,61,0.49992984096447346,0.99999,0.9999,1,1,5006
125,66,0.7499298409644735,0.99999,0.75,1,1,1048
125,67,0.8749298409644735,0.99999,0.25,1,0,1640
125,69,0.12492984096447346,0.99999,0.75,1,1,4202
125,72,0.49992984096447346,0.5,0.75,0,0,5837
125,73,0.12492984096447346,0.99999,0.9999,1,1,3573
125,76,0.49992984096447346,0.99999,0.75,1,1,3057
125,77,0.37492984096447346,0.99999,0.5,0,1,2265
125,78,0.12492984096447346,0.5,0.9999,0,0,1506
125,80,0.12492984096447346,0.5,0.5,0,1,1968
125,81,0.37492984096447346,0.99999,0.9999,1,1,1778
125,83,0.8749298409644735,0.5,0.9999,1,1,1055
125,84,0.6249298409644735,0.99999,0.25,1,0,1060
125,85,0.6249298409644735,0.5,0.9999,1,1,2169
125,89,0.6249298409644735,0.99999,0.9999,1,1,723
125,91,0.49992984096447346,0.99999,0.5,1,1,1912
125,92,0.6249298409644735,0.99999,0.75,1,1,802
125,93,0.24992984096447346,0.99999,0.75,1,1,6077
125,94,0.24992984096447346,0.99999,0.9999,1,1,1573
125,95,0.7499298409644735,0.99999,0.9999,1,1,803
125,96,0.24992984096447346,0.5,0.75,0,0,4035
125,98,0.24992984096447346,0.99999,0.5,0,0,4759
125,100,0.7499298409644735,0.99999,0.25,1,1,1810
126,1,0.8749298409644735,0.5,0.25,0,1,7577
126,2,0.24992984096447346,0,1e-4,0,1,450
126,3,0.7499298409644735,0.99999,0.75,1,1,1320
126,4,0.49992984096447346,0.5,0.5,1,1,4087
126,7,0.24992984096447346,0.99999,0.25,0,1,4332
126,9,0.37492984096447346,0.5,0.25,0,1,6033
126,10,0.8749298409644735,0.5,0.25,1,1,2576
126,11,0.8749298409644735,0,1e-4,1,0,1977
126,17,0.12492984096447346,0.5,0.25,0,0,995
126,18,0.7499298409644735,0.5,0.5,1,1,789
126,19,0.6249298409644735,0.5,0.25,0,0,4562
126,20,0.7499298409644735,0.99999,0.25,1,1,3872
126,21,0.49992984096447346,0,1e-4,0,1,3219
126,23,0.37492984096447346,0.5,0.75,0,0,2955
126,24,0.24992984096447346,0,1e-4,0,1,1750
126,25,0.6249298409644735,0.99999,0.5,1,1,545
126,26,0.37492984096447346,0,1e-4,0,1,567
126,27,0.8749298409644735,0.99999,0.5,1,1,732
126,28,0.8749298409644735,0.5,0.75,1,1,2301
126,34,0.49992984096447346,0.99999,0.25,1,1,2650
126,39,0.37492984096447346,0.99999,0.5,1,1,1547
126,41,0.12492984096447346,0.5,0.25,0,1,1104
126,42,0.6249298409644735,0.5,0.25,0,0,9338
126,43,0.12492984096447346,0,1e-4,0,1,433
126,44,0.7499298409644735,0,1e-4,0,0,5249
126,45,0.37492984096447346,0.5,0.25,0,1,824
126,46,0.7499298409644735,0,1e-4,0,1,527
126,48,0.6249298409644735,0,1e-4,0,1,2149
126,49,0.7499298409644735,0.5,0.5,0,0,5095
126,51,0.49992984096447346,0,1e-4,0,0,1432
126,52,0.49992984096447346,0.5,0.5,0,0,966
126,55,0.6249298409644735,0,1e-4,0,1,396
126,59,0.12492984096447346,0,1e-4,0,0,131
126,60,0.49992984096447346,0.99999,0.75,0,0,1726
126,61,0.6249298409644735,0.99999,0.5,1,0,1619
126,63,0.7499298409644735,0.5,0.25,0,0,2527
126,64,0.24992984096447346,0.5,0.25,0,0,6088
126,66,0.6249298409644735,0.99999,0.25,1,0,6758
126,67,0.8749298409644735,0,1e-4,1,0,970
126,69,0.49992984096447346,0.99999,0.5,1,0,2992
126,70,0.49992984096447346,0.99999,0.25,0,1,1310
126,72,0.37492984096447346,0,1e-4,0,1,813
126,74,0.49992984096447346,0.5,0.25,0,0,2021
126,75,0.7499298409644735,0,1e-4,1,0,3242
126,77,0.6249298409644735,0,1e-4,0,1,2178
126,81,0.7499298409644735,0.99999,0.5,1,1,608
126,82,0.24992984096447346,0,1e-4,0,1,948
126,83,0.37492984096447346,0,1e-4,0,1,1011
126,84,0.8749298409644735,0,1e-4,0,0,1241
126,86,0.12492984096447346,0.99999,0.25,0,0,1176
126,88,0.24992984096447346,0.99999,0.25,0,0,5435
126,89,0.37492984096447346,0.99999,0.25,1,0,7549
126,91,0.37492984096447346,0.99999,0.5,0,0,2579
126,93,0.49992984096447346,0.5,0.75,1,1,904
126,94,0.24992984096447346,0.99999,0.5,1,0,1226
126,99,0.8749298409644735,0.99999,0.25,0,0,1844
126,100,0.8749298409644735,0.99999,0.5,1,0,1300
126,101,0.12492984096447346,0,1e-4,0,1,3006
126,105,0.49992984096447346,0,1e-4,0,1,2046
126,5,0.12492984096447346,0.5,0.75,0,0,5395
126,6,0.37492984096447346,0.5,0.75,1,1,9569
126,8,0.8749298409644735,0.99999,0.9999,1,0,819
126,12,0.12492984096447346,0.99999,0.5,0,1,5808
126,13,0.12492984096447346,0.5,0.75,0,0,4865
126,14,0.7499298409644735,0.5,0.9999,1,1,4441
126,15,0.49992984096447346,0.5,0.9999,1,1,972
126,16,0.8749298409644735,0.5,0.75,1,0,415
126,22,0.24992984096447346,0.5,0.5,0,1,1684
126,29,0.24992984096447346,0.99999,0.75,1,0,1325
126,30,0.12492984096447346,0.99999,0.9999,1,1,601
126,31,0.49992984096447346,0.5,0.9999,1,1,1280
126,32,0.49992984096447346,0.99999,0.75,1,0,678
126,33,0.6249298409644735,0.5,0.75,1,1,487
126,35,0.24992984096447346,0.5,0.9999,1,0,2817
126,36,0.37492984096447346,0.99999,0.9999,1,1,2237
126,37,0.6249298409644735,0.5,0.75,1,0,1849
126,38,0.24992984096447346,0.5,0.9999,0,0,2137
126,40,0.6249298409644735,0.99999,0.9999,1,0,465
126,47,0.24992984096447346,0.5,0.5,0,1,246
126,50,0.7499298409644735,0.5,0.9999,1,1,292
126,53,0.12492984096447346,0.5,0.5,0,0,677
126,54,0.49992984096447346,0.99999,0.9999,1,0,373
126,56,0.7499298409644735,0.99999,0.25,0,0,640
126,57,0.8749298409644735,0.99999,0.9999,1,1,380
126,58,0.6249298409644735,0.5,0.9999,1,1,568
126,62,0.6249298409644735,0.99999,0.75,0,0,319
126,65,0.24992984096447346,0.99999,0.75,1,0,2686
126,68,0.12492984096447346,0.99999,0.9999,1,1,826
126,71,0.37492984096447346,0.5,0.5,0,0,2134
126,73,0.7499298409644735,0.5,0.75,1,1,5272
126,76,0.8749298409644735,0.5,0.5,0,1,1441
126,78,0.37492984096447346,0.99999,0.75,1,0,8253
126,79,0.6249298409644735,0.99999,0.9999,1,1,2081
126,80,0.8749298409644735,0.5,0.9999,1,1,393
126,85,0.8749298409644735,0.99999,0.75,1,1,419
126,87,0.24992984096447346,0.5,0.75,1,1,1936
126,90,0.24992984096447346,0.99999,0.9999,1,1,395
126,92,0.6249298409644735,0.5,0.5,0,0,1988
126,95,0.12492984096447346,0.99999,0.5,0,1,2177
126,96,0.7499298409644735,0.99999,0.9999,1,1,944
126,97,0.7499298409644735,0.99999,0.75,1,1,971
126,98,0.12492984096447346,0.5,0.9999,0,1,3841
126,102,0.37492984096447346,0.99999,0.9999,1,1,487
126,103,0.37492984096447346,0.5,0.9999,1,1,1789
126,104,0.12492984096447346,0.99999,0.75,1,0,647
127,2,0.24992984096447346,0.99999,0.75,1,1,1750
127,4,0.8749298409644735,0,1e-4,1,0,13357
127,7,0.49992984096447346,0,1e-4,0,1,1521
127,10,0.24992984096447346,0.99999,0.25,1,0,5995
127,16,0.24992984096447346,0,1e-4,0,1,2794
127,18,0.37492984096447346,0.5,0.75,0,0,6935
127,19,0.7499298409644735,0,1e-4,0,1,3039
127,22,0.49992984096447346,0.99999,0.25,0,0,2870
127,23,0.6249298409644735,0,1e-4,0,0,10010
127,24,0.8749298409644735,0.5,0.25,1,0,4574
127,25,0.6249298409644735,0.5,0.75,1,1,1646
127,26,0.8749298409644735,0.5,0.25,0,1,2268
127,28,0.8749298409644735,0.99999,0.5,1,0,1701
127,29,0.7499298409644735,0,1e-4,1,0,3771
127,30,0.37492984096447346,0,1e-4,0,1,2455
127,31,0.49992984096447346,0.5,0.5,0,1,1782
127,32,0.49992984096447346,0,1e-4,0,1,4931
127,35,0.24992984096447346,0,1e-4,0,1,1413
127,36,0.37492984096447346,0.99999,0.5,1,1,5002
127,40,0.6249298409644735,0.5,0.25,0,0,1524
127,41,0.7499298409644735,0.5,0.5,1,1,3440
127,42,0.12492984096447346,0.5,0.25,0,1,4034
127,48,0.12492984096447346,0,1e-4,0,1,2275
127,50,0.6249298409644735,0.5,0.25,0,1,4931
127,51,0.6249298409644735,0.5,0.75,1,0,4643
127,53,0.49992984096447346,0.99999,0.5,1,1,2342
127,55,0.49992984096447346,0,1e-4,0,1,4919
127,58,0.7499298409644735,0.99999,0.25,0,1,3417
127,61,0.37492984096447346,0.99999,0.25,1,0,5778
127,62,0.12492984096447346,0,1e-4,0,1,1049
127,66,0.8749298409644735,0,1e-4,0,1,2368
127,70,0.24992984096447346,0,1e-4,0,0,1876
127,75,0.37492984096447346,0,1e-4,0,0,1185
127,77,0.24992984096447346,0.99999,0.5,0,0,9409
127,78,0.6249298409644735,0,1e-4,0,1,1282
127,79,0.7499298409644735,0.99999,0.5,1,1,1097
127,80,0.6249298409644735,0,1e-4,0,1,817
127,84,0.8749298409644735,0.99999,0.5,1,0,1783
127,86,0.8749298409644735,0.5,0.5,0,0,4827
127,89,0.12492984096447346,0,1e-4,0,1,959
127,90,0.6249298409644735,0.99999,0.25,1,1,1846
127,92,0.37492984096447346,0,1e-4,0,1,1546
127,94,0.37492984096447346,0.5,0.5,0,0,1715
127,95,0.8749298409644735,0.99999,0.25,1,1,2095
127,96,0.49992984096447346,0.5,0.25,0,0,1399
127,97,0.24992984096447346,0.99999,0.25,0,1,1342
127,99,0.24992984096447346,0.5,0.25,0,1,995
127,101,0.8749298409644735,0,1e-4,0,1,857
127,104,0.7499298409644735,0,1e-4,0,1,4910
127,1,0.8749298409644735,0.5,0.75,1,1,4287
127,3,0.12492984096447346,0.99999,0.5,1,0,7014
127,5,0.7499298409644735,0.5,0.9999,1,1,1911
127,6,0.24992984096447346,0.5,0.5,0,1,1525
127,8,0.7499298409644735,0.99999,0.25,1,0,5209
127,9,0.24992984096447346,0.5,0.5,0,0,3043
127,11,0.7499298409644735,0.99999,0.75,1,1,1749
127,12,0.37492984096447346,0.5,0.75,0,1,3515
127,13,0.7499298409644735,0.5,0.5,0,1,1648
127,14,0.8749298409644735,0.5,0.75,1,1,2834
127,15,0.49992984096447346,0.99999,0.75,1,1,2077
127,17,0.49992984096447346,0.5,0.9999,1,1,4906
127,20,0.49992984096447346,0.5,0.9999,1,1,7716
127,21,0.7499298409644735,0.5,0.9999,1,1,2901
127,27,0.37492984096447346,0.5,0.25,0,1,3416
127,33,0.37492984096447346,0.5,0.25,0,1,3043
127,34,0.6249298409644735,0.99999,0.5,1,1,2395
127,37,0.24992984096447346,0.5,0.9999,0,0,5526
127,38,0.49992984096447346,0.5,0.5,0,0,10761
127,39,0.12492984096447346,0.5,0.25,0,1,1056
127,43,0.24992984096447346,0.5,0.9999,0,1,2924
127,44,0.12492984096447346,0.99999,0.9999,1,1,3660
127,45,0.12492984096447346,0.5,0.75,0,0,9686
127,46,0.8749298409644735,0.99999,0.9999,1,1,1434
127,47,0.37492984096447346,0.99999,0.9999,1,0,2893
127,49,0.12492984096447346,0.5,0.75,0,0,2482
127,52,0.6249298409644735,0.99999,0.9999,1,0,1589
127,54,0.49992984096447346,0.99999,0.25,0,1,3550
127,56,0.12492984096447346,0.99999,0.5,0,1,2998
127,57,0.12492984096447346,0.99999,0.75,1,1,2455
127,59,0.6249298409644735,0.99999,0.5,1,0,2427
127,60,0.12492984096447346,0.5,0.5,0,1,1067
127,63,0.24992984096447346,0.99999,0.9999,1,1,2392
127,64,0.12492984096447346,0.99999,0.25,0,0,3423
127,65,0.37492984096447346,0.99999,0.75,1,1,1712
127,67,0.7499298409644735,0.5,0.75,1,1,4981
127,68,0.49992984096447346,0.5,0.75,0,0,3407
127,69,0.8749298409644735,0.99999,0.75,1,0,1210
127,71,0.12492984096447346,0.5,0.9999,0,0,2340
127,72,0.6249298409644735,0.99999,0.75,1,1,2629
127,73,0.49992984096447346,0.99999,0.9999,1,1,2243
127,74,0.8749298409644735,0.5,0.9999,1,1,1175
127,76,0.8749298409644735,0.99999,0.9999,1,0,787
127,81,0.7499298409644735,0.99999,0.75,1,1,1166
127,82,0.6249298409644735,0.99999,0.9999,1,0,1428
127,83,0.49992984096447346,0.99999,0.75,1,1,1869
127,85,0.37492984096447346,0.99999,0.5,0,1,1974
127,87,0.6249298409644735,0.5,0.9999,1,1,4057
127,88,0.7499298409644735,0.5,0.25,0,0,1390
127,91,0.12492984096447346,0.99999,0.9999,1,1,1196
127,93,0.6249298409644735,0.5,0.5,0,1,1760
127,98,0.37492984096447346,0.99999,0.9999,1,1,1271
127,100,0.7499298409644735,0.99999,0.9999,1,1,886
127,102,0.37492984096447346,0.5,0.9999,0,1,2801
127,103,0.24992984096447346,0.5,0.75,0,1,2345
127,105,0.24992984096447346,0.99999,0.75,1,0,3493
128,4,0.12492984096447346,0,1e-4,0,0,3054
128,5,0.49992984096447346,0.5,0.5,1,1,5602
128,6,0.6249298409644735,0,1e-4,1,0,6184
128,7,0.8749298409644735,0.5,0.75,1,1,1102
128,8,0.6249298409644735,0.99999,0.5,1,0,3058
128,9,0.37492984096447346,0.5,0.25,0,1,4695
128,11,0.7499298409644735,0.5,0.5,1,0,1743
128,16,0.49992984096447346,0,1e-4,0,1,12612
128,18,0.37492984096447346,0.99999,0.5,0,1,1872
128,20,0.6249298409644735,0.5,0.75,1,1,1177
128,21,0.24992984096447346,0,1e-4,0,1,1011
128,23,0.6249298409644735,0.5,0.25,0,1,3228
128,24,0.8749298409644735,0.5,0.25,1,0,5287
128,26,0.24992984096447346,0,1e-4,0,0,1773
128,27,0.49992984096447346,0.99999,0.25,1,0,4461
128,30,0.7499298409644735,0,1e-4,1,0,8238
128,34,0.7499298409644735,0.99999,0.25,1,1,13598
128,35,0.37492984096447346,0,1e-4,0,0,2066
128,36,0.12492984096447346,0.99999,0.5,0,1,4791
128,37,0.8749298409644735,0,1e-4,1,0,6866
128,39,0.12492984096447346,0.5,0.25,0,1,2049
128,40,0.49992984096447346,0,1e-4,0,0,3975
128,41,0.8749298409644735,0.99999,0.5,1,1,2138
128,44,0.7499298409644735,0,1e-4,1,1,4783
128,45,0.8749298409644735,0.5,0.25,1,0,3239
128,52,0.12492984096447346,0.5,0.25,0,1,1502
128,53,0.8749298409644735,0,1e-4,0,1,8361
128,54,0.37492984096447346,0,1e-4,0,0,3273
128,57,0.6249298409644735,0.99999,0.25,1,0,2680
128,58,0.24992984096447346,0.99999,0.25,0,1,1183
128,59,0.37492984096447346,0.99999,0.75,0,0,3838
128,61,0.24992984096447346,0.5,0.75,0,0,998
128,62,0.7499298409644735,0.99999,0.75,1,1,1010
128,63,0.6249298409644735,0,1e-4,1,0,2984
128,64,0.49992984096447346,0.5,0.25,0,0,3570
128,66,0.6249298409644735,0.99999,0.75,1,0,963
128,67,0.49992984096447346,0.5,0.75,0,0,5045
128,68,0.12492984096447346,0,1e-4,0,1,3555
128,72,0.24992984096447346,0.99999,0.5,0,0,642
128,77,0.7499298409644735,0,1e-4,1,0,1835
128,78,0.8749298409644735,0,1e-4,1,0,468
128,79,0.12492984096447346,0,1e-4,0,1,1423
128,81,0.7499298409644735,0.99999,0.5,1,0,1347
128,83,0.6249298409644735,0.5,0.5,0,0,3539
128,85,0.24992984096447346,0,1e-4,0,1,838
128,86,0.49992984096447346,0,1e-4,0,1,1604
128,87,0.12492984096447346,0.99999,0.5,0,0,1869
128,88,0.8749298409644735,0.99999,0.75,1,0,871
128,89,0.6249298409644735,0,1e-4,0,1,5251
128,91,0.37492984096447346,0.99999,0.5,0,1,1528
128,92,0.7499298409644735,0.99999,0.25,1,0,591
128,95,0.49992984096447346,0.99999,0.25,1,0,1789
128,98,0.37492984096447346,0,1e-4,0,0,1009
128,99,0.24992984096447346,0.5,0.25,0,1,459
128,102,0.12492984096447346,0.5,0.5,0,0,1048
128,1,0.7499298409644735,0.5,0.9999,1,0,1550
128,2,0.24992984096447346,0.99999,0.25,0,0,686
128,3,0.7499298409644735,0.5,0.9999,1,0,2471
128,10,0.37492984096447346,0.5,0.75,0,0,4354
128,12,0.24992984096447346,0.5,0.9999,0,0,4137
128,13,0.24992984096447346,0.5,0.5,0,1,13076
128,14,0.49992984096447346,0.5,0.5,1,0,8634
128,15,0.6249298409644735,0.99999,0.9999,1,1,3350
128,17,0.6249298409644735,0.5,0.75,1,1,967
128,19,0.12492984096447346,0.5,0.75,0,0,5123
128,22,0.49992984096447346,0.5,0.9999,0,0,2019
128,25,0.7499298409644735,0.5,0.5,1,1,6682
128,28,0.24992984096447346,0.5,0.5,0,0,6970
128,29,0.8749298409644735,0.5,0.75,1,1,4073
128,31,0.37492984096447346,0.99999,0.9999,0,0,16017
128,32,0.24992984096447346,0.99999,0.75,0,1,3941
128,33,0.24992984096447346,0.5,0.9999,0,0,3058
128,38,0.7499298409644735,0.99999,0.75,1,0,4763
128,42,0.37492984096447346,0.5,0.75,0,1,11166
128,43,0.6249298409644735,0.5,0.25,0,1,3843
128,46,0.49992984096447346,0.5,0.9999,1,1,5673
128,47,0.8749298409644735,0.99999,0.9999,1,1,570
128,48,0.37492984096447346,0.5,0.25,0,0,961
128,49,0.12492984096447346,0.5,0.75,0,0,2321
128,50,0.12492984096447346,0.99999,0.9999,0,0,10824
128,51,0.49992984096447346,0.99999,0.75,1,0,5978
128,55,0.37492984096447346,0.99999,0.9999,1,1,2315
128,56,0.37492984096447346,0.5,0.9999,0,0,3638
128,60,0.12492984096447346,0.99999,0.75,0,1,2374
128,65,0.6249298409644735,0.99999,0.5,1,0,5256
128,69,0.12492984096447346,0.99999,0.9999,1,1,1074
128,70,0.37492984096447346,0.5,0.5,0,1,1297
128,71,0.8749298409644735,0.5,0.9999,1,1,883
128,73,0.37492984096447346,0.99999,0.25,0,0,1735
128,74,0.12492984096447346,0.99999,0.25,0,0,2421
128,75,0.7499298409644735,0.5,0.75,1,0,2835
128,76,0.8749298409644735,0.99999,0.9999,1,1,645
128,80,0.49992984096447346,0.99999,0.9999,1,1,2874
128,82,0.6249298409644735,0.5,0.9999,1,1,1206
128,84,0.24992984096447346,0.99999,0.75,0,0,4461
128,90,0.49992984096447346,0.99999,0.5,0,0,4267
128,93,0.49992984096447346,0.99999,0.75,1,1,4095
128,94,0.7499298409644735,0.99999,0.9999,1,1,1074
128,96,0.12492984096447346,0.5,0.9999,0,0,948
128,97,0.8749298409644735,0.99999,0.5,1,0,1700
128,100,0.24992984096447346,0.99999,0.9999,1,1,893
128,101,0.8749298409644735,0.99999,0.25,1,0,1607
128,103,0.7499298409644735,0.5,0.25,1,0,2049
128,104,0.6249298409644735,0.99999,0.9999,1,0,501
128,105,0.8749298409644735,0.5,0.5,1,0,1887
129,1,0.12492984096447346,0,1e-4,0,1,1682
129,4,0.8749298409644735,0,1e-4,0,0,647
129,8,0.12492984096447346,0.5,0.25,0,1,1389
129,9,0.7499298409644735,0.99999,0.75,1,1,3048
129,10,0.8749298409644735,0.5,0.75,1,1,2224
129,11,0.49992984096447346,0,1e-4,0,1,1857
129,14,0.6249298409644735,0.5,0.25,0,1,2479
129,17,0.7499298409644735,0,1e-4,0,1,8421
129,18,0.6249298409644735,0.5,0.25,0,1,5095
129,24,0.8749298409644735,0.5,0.25,0,0,2741
129,29,0.37492984096447346,0,1e-4,0,0,8394
129,30,0.37492984096447346,0.5,0.25,0,0,1589
129,31,0.8749298409644735,0.99999,0.5,1,0,4093
129,32,0.7499298409644735,0,1e-4,0,0,13229
129,33,0.49992984096447346,0,1e-4,0,0,1665
129,35,0.24992984096447346,0.99999,0.25,0,0,5240
129,37,0.8749298409644735,0.5,0.25,0,1,7245
129,38,0.6249298409644735,0,1e-4,0,1,1191
129,41,0.7499298409644735,0.99999,0.25,0,1,1560
129,46,0.49992984096447346,0.99999,0.25,0,0,5280
129,47,0.24992984096447346,0,1e-4,0,1,1367
129,49,0.24992984096447346,0.5,0.5,0,0,5430
129,51,0.24992984096447346,0,1e-4,0,1,2474
129,53,0.8749298409644735,0.99999,0.5,1,1,2250
129,54,0.7499298409644735,0.99999,0.75,1,1,1893
129,60,0.49992984096447346,0,1e-4,0,1,3435
129,62,0.49992984096447346,0.99999,0.75,1,0,2670
129,66,0.7499298409644735,0.99999,0.25,0,1,2067
129,69,0.12492984096447346,0,1e-4,0,0,12502
129,71,0.24992984096447346,0,1e-4,0,1,1359
129,72,0.24992984096447346,0.99999,0.25,0,1,4359
129,74,0.7499298409644735,0.5,0.25,0,0,2796
129,75,0.6249298409644735,0.99999,0.25,0,1,1462
129,76,0.8749298409644735,0,1e-4,0,0,1138
129,77,0.12492984096447346,0,1e-4,0,1,8484
129,78,0.6249298409644735,0,1e-4,0,0,3237
129,81,0.7499298409644735,0,1e-4,0,1,3700
129,82,0.37492984096447346,0,1e-4,0,0,16213
129,86,0.8749298409644735,0.99999,0.25,0,1,5621
129,87,0.24992984096447346,0.99999,0.75,1,1,1125
129,91,0.6249298409644735,0,1e-4,0,1,5956
129,94,0.49992984096447346,0.5,0.25,0,0,3755
129,95,0.37492984096447346,0.99999,0.25,0,1,2116
129,100,0.12492984096447346,0.99999,0.25,0,1,1368
129,103,0.37492984096447346,0,1e-4,0,1,977
129,104,0.8749298409644735,0,1e-4,0,1,1177
129,2,0.37492984096447346,0.99999,0.9999,1,1,863
129,3,0.24992984096447346,0.99999,0.75,1,1,1078
129,5,0.7499298409644735,0.5,0.9999,1,0,10922
129,6,0.37492984096447346,0.5,0.75,0,1,5064
129,7,0.8749298409644735,0.5,0.75,1,0,2878
129,12,0.7499298409644735,0.5,0.5,0,0,4077
129,13,0.12492984096447346,0.5,0.75,1,1,3240
129,15,0.12492984096447346,0.5,0.75,1,1,2825
129,16,0.7499298409644735,0.5,0.9999,1,1,47255
129,19,0.12492984096447346,0.99999,0.9999,1,1,4322
129,20,0.6249298409644735,0.5,0.75,1,1,38465
129,21,0.24992984096447346,0.5,0.5,0,0,19724
129,22,0.37492984096447346,0.5,0.25,0,1,7270
129,23,0.12492984096447346,0.99999,0.5,1,1,8333
129,25,0.49992984096447346,0.99999,0.75,1,1,1979
129,26,0.6249298409644735,0.5,0.75,1,1,22347
129,27,0.49992984096447346,0.5,0.9999,1,0,1314
129,28,0.7499298409644735,0.5,0.5,0,1,3296
129,34,0.49992984096447346,0.5,0.9999,0,1,2222
129,36,0.49992984096447346,0.5,0.5,0,1,10562
129,39,0.6249298409644735,0.99999,0.5,1,1,9120
129,40,0.24992984096447346,0.5,0.9999,0,0,35869
129,42,0.37492984096447346,0.99999,0.5,1,1,5359
129,43,0.24992984096447346,0.5,0.9999,1,1,3819
129,44,0.37492984096447346,0.5,0.75,1,1,107823
129,45,0.49992984096447346,0.5,0.5,1,1,13224
129,48,0.8749298409644735,0.99999,0.9999,1,0,2141
129,50,0.6249298409644735,0.99999,0.9999,1,1,1061
129,52,0.12492984096447346,0.5,0.25,0,1,3764
129,55,0.37492984096447346,0.5,0.5,0,1,3321
129,56,0.7499298409644735,0.5,0.75,1,1,3143
129,57,0.24992984096447346,0.99999,0.9999,1,1,1988
129,58,0.49992984096447346,0.5,0.75,1,1,57076
129,59,0.6249298409644735,0.99999,0.5,1,0,12271
129,61,0.37492984096447346,0.99999,0.75,1,1,1969
129,63,0.7499298409644735,0.99999,0.9999,1,1,1326
129,64,0.6249298409644735,0.5,0.9999,1,1,3138
129,65,0.12492984096447346,0.99999,0.5,0,1,4191
129,67,0.49992984096447346,0.99999,0.5,1,1,10190
129,68,0.24992984096447346,0.99999,0.5,1,0,5669
129,70,0.6249298409644735,0.5,0.5,0,1,11109
129,73,0.49992984096447346,0.99999,0.25,0,1,3065
129,79,0.7499298409644735,0.99999,0.5,1,0,1016
129,80,0.12492984096447346,0.99999,0.75,1,1,2549
129,83,0.24992984096447346,0.5,0.75,1,1,5348
129,84,0.49992984096447346,0.99999,0.9999,1,1,773
129,85,0.6249298409644735,0.99999,0.9999,1,1,758
129,88,0.6249298409644735,0.99999,0.75,1,1,6310
129,89,0.37492984096447346,0.99999,0.9999,1,0,841
129,90,0.24992984096447346,0.5,0.25,0,1,1024
129,92,0.8749298409644735,0.99999,0.9999,1,1,1687
129,93,0.12492984096447346,0.5,0.5,0,0,1692
129,96,0.8749298409644735,0.99999,0.75,1,1,2302
129,97,0.12492984096447346,0.99999,0.9999,1,1,2577
129,98,0.8749298409644735,0.5,0.5,1,0,61782
129,99,0.12492984096447346,0.5,0.9999,1,1,1451
129,101,0.37492984096447346,0.5,0.9999,1,1,1388
129,102,0.37492984096447346,0.99999,0.5,0,1,4881
129,105,0.8749298409644735,0.5,0.9999,1,1,975
130,1,0.12492984096447346,0.5,0.75,0,0,6096
130,4,0.49992984096447346,0,1e-4,1,0,6930
130,5,0.8749298409644735,0.5,0.25,1,1,2774
130,8,0.7499298409644735,0.99999,0.25,1,0,2519
130,10,0.12492984096447346,0,1e-4,0,1,2613
130,11,0.37492984096447346,0.5,0.25,0,0,1123
130,13,0.8749298409644735,0.5,0.75,1,1,1315
130,14,0.6249298409644735,0.5,0.25,1,1,4424
130,15,0.37492984096447346,0.99999,0.5,0,1,5611
130,19,0.37492984096447346,0.5,0.75,0,0,2876
130,20,0.24992984096447346,0.99999,0.25,0,0,2865
130,21,0.7499298409644735,0,1e-4,1,0,2151
130,22,0.49992984096447346,0.99999,0.25,1,1,3341
130,24,0.24992984096447346,0,1e-4,0,1,942
130,26,0.8749298409644735,0.5,0.75,1,0,3672
130,27,0.8749298409644735,0.5,0.25,1,0,2709
130,28,0.24992984096447346,0,1e-4,0,1,1802
130,31,0.37492984096447346,0,1e-4,0,0,1024
130,33,0.7499298409644735,0,1e-4,0,1,1171
130,34,0.6249298409644735,0,1e-4,1,0,6116
130,39,0.49992984096447346,0.5,0.5,0,0,5038
130,40,0.49992984096447346,0.5,0.5,1,1,1587
130,41,0.49992984096447346,0,1e-4,0,1,3225
130,44,0.12492984096447346,0.5,0.25,0,0,894
130,46,0.6249298409644735,0.5,0.25,1,0,2614
130,47,0.8749298409644735,0,1e-4,0,0,1244
130,51,0.6249298409644735,0.99999,0.5,1,0,2254
130,53,0.7499298409644735,0.99999,0.25,1,1,1331
130,55,0.8749298409644735,0,1e-4,0,0,248
130,56,0.8749298409644735,0.5,0.5,1,0,2019
130,57,0.7499298409644735,0.99999,0.5,1,1,2097
130,58,0.37492984096447346,0,1e-4,0,1,1780
130,59,0.24992984096447346,0.5,0.25,0,0,4276
130,62,0.49992984096447346,0.99999,0.5,0,0,2084
130,67,0.6249298409644735,0.5,0.5,1,1,2448
130,74,0.49992984096447346,0.5,0.25,0,0,2474
130,75,0.12492984096447346,0,1e-4,0,1,1147
130,76,0.8749298409644735,0.99999,0.75,0,1,2512
130,78,0.6249298409644735,0,1e-4,1,0,4097
130,79,0.49992984096447346,0.99999,0.25,0,1,4115
130,80,0.7499298409644735,0,1e-4,1,0,5472
130,81,0.24992984096447346,0.99999,0.5,0,1,1802
130,82,0.6249298409644735,0.99999,0.5,1,0,2974
130,83,0.24992984096447346,0.5,0.75,0,0,1988
130,85,0.12492984096447346,0,1e-4,0,1,914
130,87,0.24992984096447346,0,1e-4,0,1,1134
130,88,0.8749298409644735,0,1e-4,1,0,2352
130,89,0.24992984096447346,0.99999,0.25,0,1,2168
130,91,0.8749298409644735,0.99999,0.25,0,0,1004
130,93,0.49992984096447346,0,1e-4,1,0,2830
130,96,0.37492984096447346,0.99999,0.5,0,0,2264
130,97,0.6249298409644735,0.99999,0.75,1,1,891
130,98,0.37492984096447346,0,1e-4,0,1,977
130,99,0.8749298409644735,0.99999,0.5,1,0,1890
130,101,0.7499298409644735,0.99999,0.75,1,1,1404
130,102,0.6249298409644735,0,1e-4,0,0,1158
130,103,0.12492984096447346,0.99999,0.25,0,0,1146
130,105,0.7499298409644735,0.5,0.25,0,1,960
130,2,0.7499298409644735,0.5,0.5,1,0,2516
130,3,0.12492984096447346,0.5,0.75,0,0,2063
130,6,0.7499298409644735,0.5,0.9999,1,0,2224
130,7,0.7499298409644735,0.5,0.9999,1,1,2897
130,9,0.24992984096447346,0.5,0.5,0,1,3031
130,12,0.8749298409644735,0.99999,0.5,1,1,1893
130,16,0.49992984096447346,0.99999,0.75,1,1,4263
130,17,0.7499298409644735,0.99999,0.75,1,1,2100
130,18,0.49992984096447346,0.5,0.9999,0,0,6639
130,23,0.7499298409644735,0.5,0.5,1,1,1935
130,25,0.37492984096447346,0.99999,0.9999,1,1,1473
130,29,0.24992984096447346,0.5,0.5,0,0,2026
130,30,0.24992984096447346,0.5,0.9999,0,1,1657
130,32,0.6249298409644735,0.5,0.75,1,1,1974
130,35,0.8749298409644735,0.99999,0.9999,1,1,4744
130,36,0.12492984096447346,0.5,0.25,0,1,1100
130,37,0.37492984096447346,0.5,0.75,0,1,2839
130,38,0.24992984096447346,0.5,0.9999,0,0,2029
130,42,0.6249298409644735,0.5,0.75,1,1,959
130,43,0.12492984096447346,0.99999,0.5,0,0,1819
130,45,0.24992984096447346,0.99999,0.75,1,1,3047
130,48,0.37492984096447346,0.5,0.25,0,0,1305
130,49,0.49992984096447346,0.5,0.9999,1,1,5347
130,50,0.6249298409644735,0.99999,0.9999,1,1,1348
130,52,0.12492984096447346,0.99999,0.9999,0,0,1896
130,54,0.6249298409644735,0.99999,0.9999,1,1,1526
130,60,0.37492984096447346,0.5,0.9999,0,1,2125
130,61,0.49992984096447346,0.99999,0.75,1,1,1065
130,63,0.6249298409644735,0.5,0.9999,1,1,2348
130,64,0.8749298409644735,0.99999,0.9999,1,0,1329
130,65,0.7499298409644735,0.99999,0.9999,1,1,1091
130,66,0.12492984096447346,0.5,0.5,0,0,1798
130,68,0.12492984096447346,0.99999,0.5,0,1,1945
130,69,0.7499298409644735,0.5,0.75,1,1,1182
130,70,0.12492984096447346,0.5,0.9999,0,0,1913
130,71,0.37492984096447346,0.99999,0.25,0,0,1797
130,72,0.12492984096447346,0.99999,0.75,0,0,1136
130,73,0.49992984096447346,0.99999,0.9999,1,0,1175
130,77,0.24992984096447346,0.99999,0.75,0,1,2667
130,84,0.37492984096447346,0.5,0.5,0,1,1328
130,86,0.8749298409644735,0.5,0.9999,1,1,1219
130,90,0.49992984096447346,0.5,0.75,1,1,4104
130,92,0.12492984096447346,0.99999,0.9999,1,1,1309
130,94,0.6249298409644735,0.99999,0.25,1,0,10186
130,95,0.37492984096447346,0.99999,0.75,0,0,2938
130,100,0.37492984096447346,0.99999,0.9999,1,1,884
130,104,0.24992984096447346,0.99999,0.9999,1,1,688
131,4,0.6249298409644735,0.5,0.25,1,1,1380
131,5,0.12492984096447346,0.5,0.75,0,1,915
131,6,0.24992984096447346,0.5,0.5,0,1,1219
131,10,0.49992984096447346,0,1e-4,0,1,3371
131,13,0.6249298409644735,0,1e-4,1,0,1531
131,14,0.37492984096447346,0.5,0.25,0,0,1679
131,15,0.49992984096447346,0.5,0.5,1,0,8751
131,17,0.49992984096447346,0.99999,0.75,1,0,2567
131,18,0.7499298409644735,0.99999,0.25,1,1,2272
131,19,0.12492984096447346,0.5,0.25,0,1,1383
131,20,0.49992984096447346,0.99999,0.25,0,1,1955
131,24,0.8749298409644735,0,1e-4,1,1,1029
131,25,0.37492984096447346,0.5,0.25,0,1,8085
131,26,0.49992984096447346,0,1e-4,0,0,2365
131,27,0.12492984096447346,0.5,0.75,0,0,1990
131,31,0.24992984096447346,0,1e-4,0,1,1054
131,37,0.37492984096447346,0,1e-4,0,1,721
131,38,0.37492984096447346,0.99999,0.5,0,0,1254
131,42,0.7499298409644735,0,1e-4,1,0,987
131,45,0.12492984096447346,0,1e-4,0,0,796
131,47,0.24992984096447346,0,1e-4,0,1,635
131,48,0.7499298409644735,0.5,0.5,1,0,772
131,49,0.7499298409644735,0,1e-4,1,0,1596
131,51,0.6249298409644735,0.5,0.25,1,1,5939
131,53,0.49992984096447346,0.99999,0.25,0,1,2811
131,55,0.24992984096447346,0,1e-4,0,1,2107
131,56,0.12492984096447346,0.99999,0.75,0,0,14551
131,58,0.49992984096447346,0.5,0.75,0,0,14806
131,59,0.37492984096447346,0.99999,0.5,0,0,4074
131,61,0.7499298409644735,0,1e-4,1,0,1678
131,65,0.24992984096447346,0.5,0.75,0,0,840
131,67,0.49992984096447346,0.99999,0.75,1,1,4332
131,68,0.37492984096447346,0,1e-4,0,1,2190
131,72,0.37492984096447346,0,1e-4,0,1,2971
131,74,0.37492984096447346,0.5,0.5,0,1,1496
131,75,0.37492984096447346,0.99999,0.75,0,0,2372
131,77,0.8749298409644735,0,1e-4,1,0,4662
131,80,0.6249298409644735,0,1e-4,1,0,4792
131,81,0.6249298409644735,0.99999,0.25,1,1,2246
131,82,0.6249298409644735,0,1e-4,1,0,1074
131,83,0.7499298409644735,0.99999,0.25,1,0,1665
131,84,0.12492984096447346,0,1e-4,0,0,1446
131,87,0.24992984096447346,0.99999,0.25,0,0,1837
131,88,0.49992984096447346,0,1e-4,1,0,12159
131,90,0.12492984096447346,0,1e-4,0,1,2034
131,92,0.8749298409644735,0.99999,0.75,1,1,2176
131,94,0.8749298409644735,0.99999,0.25,1,0,1931
131,96,0.37492984096447346,0.99999,0.25,0,1,2366
131,97,0.24992984096447346,0.5,0.25,0,1,2298
131,98,0.12492984096447346,0.99999,0.5,0,1,2344
131,102,0.8749298409644735,0,1e-4,1,0,2273
131,103,0.12492984096447346,0.5,0.5,0,0,2817
131,105,0.6249298409644735,0.99999,0.5,1,1,2857
131,1,0.6249298409644735,0.99999,0.9999,1,0,3433
131,2,0.6249298409644735,0.5,0.75,1,1,1183
131,3,0.12492984096447346,0.99999,0.9999,0,0,1877
131,7,0.12492984096447346,0.5,0.25,0,0,835
131,8,0.24992984096447346,0.5,0.5,0,1,1043
131,9,0.6249298409644735,0.5,0.75,1,1,2163
131,11,0.49992984096447346,0.5,0.9999,1,1,1896
131,12,0.6249298409644735,0.99999,0.5,1,0,9397
131,16,0.24992984096447346,0.5,0.9999,0,0,1357
131,21,0.8749298409644735,0.99999,0.5,1,1,1322
131,22,0.8749298409644735,0.5,0.25,1,0,1498
131,23,0.37492984096447346,0.5,0.75,0,1,900
131,28,0.24992984096447346,0.99999,0.75,0,0,2923
131,29,0.7499298409644735,0.5,0.9999,1,0,1634
131,30,0.7499298409644735,0.5,0.9999,1,1,1225
131,32,0.8749298409644735,0.5,0.25,1,1,639
131,33,0.49992984096447346,0.5,0.9999,1,1,1962
131,34,0.8749298409644735,0.5,0.75,1,1,1378
131,35,0.37492984096447346,0.5,0.75,0,0,2586
131,36,0.37492984096447346,0.99999,0.9999,0,0,879
131,39,0.7499298409644735,0.99999,0.75,1,0,638
131,40,0.8749298409644735,0.99999,0.9999,1,1,784
131,41,0.12492984096447346,0.99999,0.5,0,0,1350
131,43,0.8749298409644735,0.5,0.75,1,0,707
131,44,0.24992984096447346,0.99999,0.25,0,1,1000
131,46,0.24992984096447346,0.5,0.9999,0,0,2565
131,50,0.49992984096447346,0.5,0.5,0,1,89863
131,52,0.7499298409644735,0.5,0.5,1,0,2440
131,54,0.8749298409644735,0.99999,0.9999,1,0,1270
131,57,0.6249298409644735,0.99999,0.9999,1,1,1612
131,60,0.24992984096447346,0.99999,0.5,0,1,1771
131,62,0.12492984096447346,0.5,0.9999,0,0,2050
131,63,0.7499298409644735,0.99999,0.9999,1,1,1540
131,64,0.37492984096447346,0.5,0.9999,0,0,2922
131,66,0.8749298409644735,0.5,0.5,1,1,1684
131,69,0.6249298409644735,0.5,0.9999,1,1,3145
131,70,0.49992984096447346,0.5,0.25,0,0,1715
131,71,0.24992984096447346,0.99999,0.9999,0,0,3620
131,73,0.6249298409644735,0.5,0.5,1,0,2726
131,76,0.24992984096447346,0.99999,0.75,0,0,1282
131,78,0.7499298409644735,0.99999,0.5,1,0,1458
131,79,0.49992984096447346,0.99999,0.5,1,0,3508
131,85,0.12492984096447346,0.99999,0.9999,0,1,1217
131,86,0.6249298409644735,0.99999,0.75,1,1,1301
131,89,0.8749298409644735,0.99999,0.5,1,0,3020
131,91,0.8749298409644735,0.5,0.9999,1,1,1667
131,93,0.12492984096447346,0.99999,0.25,0,0,3029
131,95,0.49992984096447346,0.99999,0.9999,1,1,3741
131,99,0.37492984096447346,0.99999,0.9999,0,0,2323
131,100,0.7499298409644735,0.5,0.75,1,1,1974
131,101,0.7499298409644735,0.5,0.25,1,0,3833
131,104,0.7499298409644735,0.99999,0.75,1,1,2704
132,1,0.49992984096447346,0,1e-4,0,0,1366
132,5,0.7499298409644735,0,1e-4,0,0,5712
132,6,0.24992984096447346,0.99999,0.25,0,0,5984
132,9,0.12492984096447346,0,1e-4,0,1,271
132,11,0.7499298409644735,0.5,0.5,1,1,1939
132,13,0.6249298409644735,0.5,0.25,0,0,1259
132,15,0.24992984096447346,0,1e-4,0,1,1138
132,16,0.24992984096447346,0.5,0.5,0,0,718
132,19,0.12492984096447346,0.5,0.75,1,1,3493
132,20,0.37492984096447346,0.5,0.25,0,0,488
132,26,0.37492984096447346,0.5,0.25,0,0,1247
132,27,0.24992984096447346,0,1e-4,0,1,429
132,28,0.12492984096447346,0.5,0.25,0,0,628
132,34,0.6249298409644735,0,1e-4,0,0,3485
132,35,0.49992984096447346,0,1e-4,0,0,451
132,39,0.8749298409644735,0.5,0.25,0,1,1236
132,40,0.49992984096447346,0.99999,0.25,1,0,2352
132,41,0.8749298409644735,0,1e-4,1,0,3306
132,43,0.7499298409644735,0,1e-4,0,1,889
132,48,0.37492984096447346,0,1e-4,0,1,462
132,51,0.49992984096447346,0.99999,0.75,1,0,560
132,52,0.6249298409644735,0.99999,0.5,1,0,1298
132,59,0.12492984096447346,0,1e-4,0,0,247
132,60,0.8749298409644735,0.99999,0.25,1,0,910
132,61,0.37492984096447346,0,1e-4,0,1,811
132,63,0.24992984096447346,0.5,0.25,0,1,765
132,68,0.49992984096447346,0.5,0.25,0,1,476
132,69,0.37492984096447346,0,1e-4,0,1,555
132,70,0.12492984096447346,0.99999,0.25,0,1,1615
132,76,0.6249298409644735,0,1e-4,0,1,547
132,77,0.6249298409644735,0,1e-4,0,1,399
132,78,0.37492984096447346,0.99999,0.25,0,1,725
132,79,0.8749298409644735,0,1e-4,0,1,2057
132,82,0.49992984096447346,0.99999,0.5,1,1,801
132,83,0.24992984096447346,0.99999,0.25,0,1,484
132,86,0.49992984096447346,0,1e-4,0,0,3605
132,87,0.37492984096447346,0.99999,0.5,0,1,1322
132,89,0.24992984096447346,0,1e-4,0,1,690
132,93,0.24992984096447346,0.99999,0.5,1,1,833
132,94,0.8749298409644735,0,1e-4,0,1,574
132,95,0.7499298409644735,0,1e-4,0,1,1706
132,98,0.8749298409644735,0.5,0.5,0,0,4084
132,100,0.12492984096447346,0,1e-4,0,1,447
132,2,0.7499298409644735,0.99999,0.75,1,1,793
132,3,0.7499298409644735,0.5,0.9999,1,1,669
132,4,0.49992984096447346,0.5,0.5,0,0,11793
132,7,0.12492984096447346,0.5,0.75,0,0,2762
132,8,0.49992984096447346,0.5,0.5,0,1,2192
132,10,0.8749298409644735,0.5,0.25,0,1,1225
132,12,0.24992984096447346,0.5,0.9999,1,0,1571
132,14,0.37492984096447346,0.5,0.75,1,1,598
132,17,0.6249298409644735,0.99999,0.9999,1,0,742
132,18,0.7499298409644735,0.99999,0.25,1,0,6806
132,21,0.6249298409644735,0.5,0.75,1,0,732
132,22,0.49992984096447346,0.5,0.9999,1,0,662
132,23,0.37492984096447346,0.99999,0.5,1,0,1297
132,24,0.24992984096447346,0.5,0.9999,0,1,3597
132,25,0.8749298409644735,0.99999,0.9999,1,1,705
132,29,0.49992984096447346,0.5,0.9999,0,0,900
132,30,0.7499298409644735,0.5,0.5,1,0,2388
132,31,0.8749298409644735,0.5,0.75,1,0,1120
132,32,0.37492984096447346,0.5,0.75,0,0,676
132,33,0.37492984096447346,0.99999,0.9999,1,1,1379
132,36,0.12492984096447346,0.99999,0.9999,1,0,3140
132,37,0.12492984096447346,0.5,0.25,0,0,854
132,38,0.8749298409644735,0.99999,0.5,1,1,446
132,42,0.6249298409644735,0.5,0.75,0,0,525
132,44,0.8749298409644735,0.5,0.75,1,1,7905
132,45,0.24992984096447346,0.99999,0.75,1,1,369
132,46,0.7499298409644735,0.5,0.9999,1,1,826
132,47,0.6249298409644735,0.5,0.25,0,0,427
132,49,0.24992984096447346,0.5,0.5,0,1,851
132,50,0.12492984096447346,0.99999,0.5,1,1,2307
132,53,0.6249298409644735,0.99999,0.75,1,1,389
132,54,0.7499298409644735,0.99999,0.9999,1,1,282
132,55,0.49992984096447346,0.99999,0.9999,1,1,500
132,56,0.7499298409644735,0.99999,0.75,1,0,1616
132,57,0.49992984096447346,0.99999,0.75,1,0,2876
132,58,0.8749298409644735,0.99999,0.5,1,1,1245
132,62,0.6249298409644735,0.99999,0.5,1,0,924
132,64,0.6249298409644735,0.99999,0.9999,1,1,756
132,65,0.49992984096447346,0.99999,0.25,0,0,837
132,66,0.8749298409644735,0.5,0.9999,1,1,647
132,67,0.8749298409644735,0.99999,0.75,1,0,580
132,71,0.12492984096447346,0.99999,0.75,1,0,4449
132,72,0.37492984096447346,0.99999,0.9999,1,1,670
132,73,0.7499298409644735,0.5,0.75,1,1,3085
132,74,0.7499298409644735,0.99999,0.25,0,0,1699
132,75,0.12492984096447346,0.99999,0.9999,1,1,799
132,80,0.6249298409644735,0.5,0.5,0,0,7166
132,81,0.8749298409644735,0.99999,0.9999,1,1,532
132,84,0.37492984096447346,0.99999,0.75,1,1,798
132,85,0.24992984096447346,0.99999,0.9999,1,0,403
132,88,0.12492984096447346,0.5,0.9999,1,1,906
132,90,0.12492984096447346,0.5,0.5,0,0,502
132,91,0.7499298409644735,0.99999,0.5,1,1,525
132,92,0.6249298409644735,0.99999,0.25,0,1,1122
132,96,0.49992984096447346,0.5,0.75,1,1,6082
132,97,0.7499298409644735,0.5,0.25,0,1,541
132,99,0.12492984096447346,0.99999,0.5,0,0,2070
132,101,0.24992984096447346,0.99999,0.75,0,0,1170
132,102,0.24992984096447346,0.5,0.75,0,0,586
132,103,0.6249298409644735,0.5,0.9999,1,1,486
132,104,0.37492984096447346,0.5,0.5,0,0,910
132,105,0.37492984096447346,0.5,0.9999,0,0,8045
133,1,0.8749298409644735,0,1e-4,1,1,2176
133,2,0.24992984096447346,0,1e-4,0,0,3997
133,5,0.8749298409644735,0.5,0.75,1,1,45471
133,6,0.7499298409644735,0.5,0.5,1,1,2801
133,10,0.49992984096447346,0.99999,0.75,1,1,12673
133,13,0.49992984096447346,0.99999,0.25,0,0,3247
133,14,0.37492984096447346,0.5,0.25,0,1,1470
133,17,0.24992984096447346,0.5,0.5,0,0,1225
133,19,0.8749298409644735,0.5,0.25,1,0,2972
133,20,0.12492984096447346,0.5,0.25,0,1,15184
133,22,0.37492984096447346,0.5,0.25,0,1,3296
133,23,0.7499298409644735,0,1e-4,1,0,7235
133,24,0.12492984096447346,0.5,0.25,0,0,2105
133,25,0.7499298409644735,0.99999,0.75,1,1,3648
133,26,0.49992984096447346,0,1e-4,0,1,3523
133,30,0.7499298409644735,0.5,0.5,1,0,3631
133,31,0.8749298409644735,0.5,0.25,1,1,9226
133,32,0.49992984096447346,0,1e-4,0,1,4096
133,33,0.6249298409644735,0,1e-4,1,0,1507
133,35,0.24992984096447346,0,1e-4,0,1,5105
133,37,0.12492984096447346,0,1e-4,0,1,1791
133,38,0.7499298409644735,0.99999,0.25,1,1,1481
133,43,0.6249298409644735,0.5,0.75,0,0,6312
133,45,0.6249298409644735,0.5,0.25,1,0,2396
133,47,0.7499298409644735,0,1e-4,1,0,3339
133,48,0.24992984096447346,0.99999,0.25,0,1,1981
133,49,0.37492984096447346,0,1e-4,0,1,1403
133,53,0.37492984096447346,0.99999,0.25,0,0,3359
133,55,0.49992984096447346,0.5,0.75,0,0,5050
133,56,0.12492984096447346,0.5,0.5,0,0,1146
133,63,0.7499298409644735,0.99999,0.25,1,1,1904
133,64,0.6249298409644735,0,1e-4,1,1,6580
133,65,0.8749298409644735,0.5,0.5,1,1,1025
133,67,0.12492984096447346,0.99999,0.5,0,1,2349
133,68,0.7499298409644735,0.99999,0.75,1,1,1710
133,69,0.49992984096447346,0,1e-4,0,1,5720
133,70,0.7499298409644735,0,1e-4,1,1,3349
133,71,0.8749298409644735,0,1e-4,1,0,1965
133,72,0.37492984096447346,0,1e-4,0,1,3580
133,74,0.6249298409644735,0.5,0.5,1,1,6418
133,75,0.12492984096447346,0,1e-4,0,1,1394
133,77,0.49992984096447346,0.99999,0.25,0,1,8603
133,78,0.6249298409644735,0,1e-4,1,1,1784
133,79,0.24992984096447346,0,1e-4,0,1,896
133,81,0.24992984096447346,0.5,0.75,0,0,2602
133,82,0.12492984096447346,0.99999,0.25,0,1,709
133,83,0.37492984096447346,0,1e-4,0,0,6909
133,84,0.8749298409644735,0.99999,0.25,1,0,1425
133,86,0.6249298409644735,0.99999,0.25,1,0,3938
133,87,0.24992984096447346,0.5,0.25,0,0,4883
133,88,0.12492984096447346,0,1e-4,0,1,1303
133,92,0.24992984096447346,0.99999,0.5,0,1,2165
133,93,0.7499298409644735,0.5,0.75,1,1,1617
133,96,0.8749298409644735,0,1e-4,1,1,911
133,97,0.37492984096447346,0.99999,0.5,0,0,889
133,98,0.7499298409644735,0.5,0.25,1,1,3505
133,99,0.37492984096447346,0.99999,0.75,0,1,1313
133,104,0.37492984096447346,0.5,0.5,0,1,2826
133,105,0.24992984096447346,0.99999,0.25,0,1,5633
133,3,0.6249298409644735,0.5,0.25,1,0,1939
133,4,0.8749298409644735,0.5,0.75,1,1,5480
133,7,0.24992984096447346,0.5,0.5,0,1,2289
133,8,0.12492984096447346,0.5,0.75,0,0,2526
133,9,0.24992984096447346,0.99999,0.75,0,0,3909
133,11,0.7499298409644735,0.5,0.9999,1,0,2774
133,12,0.6249298409644735,0.99999,0.5,1,1,4641
133,15,0.6249298409644735,0.5,0.75,1,1,3158
133,16,0.8749298409644735,0.99999,0.5,1,0,1419
133,18,0.37492984096447346,0.99999,0.5,0,0,1772
133,21,0.24992984096447346,0.5,0.9999,0,0,3944
133,27,0.49992984096447346,0.5,0.5,0,1,7552
133,28,0.37492984096447346,0.99999,0.9999,0,1,3016
133,29,0.12492984096447346,0.99999,0.5,0,1,5116
133,34,0.8749298409644735,0.99999,0.9999,1,1,1989
133,36,0.37492984096447346,0.5,0.75,0,0,2400
133,39,0.12492984096447346,0.5,0.75,0,1,1633
133,40,0.12492984096447346,0.99999,0.9999,0,0,2084
133,41,0.37492984096447346,0.5,0.75,0,1,2484
133,42,0.49992984096447346,0.5,0.5,0,1,6825
133,44,0.6249298409644735,0.99999,0.9999,1,1,3983
133,46,0.7499298409644735,0.5,0.9999,1,1,2130
133,50,0.49992984096447346,0.5,0.9999,0,1,8215
133,51,0.49992984096447346,0.5,0.9999,1,1,2287
133,52,0.24992984096447346,0.5,0.9999,0,0,1484
133,54,0.8749298409644735,0.99999,0.5,1,0,2122
133,57,0.8749298409644735,0.5,0.9999,1,1,1757
133,58,0.6249298409644735,0.5,0.9999,1,1,4770
133,59,0.49992984096447346,0.99999,0.75,0,0,6157
133,60,0.49992984096447346,0.5,0.25,0,0,12516
133,61,0.8749298409644735,0.99999,0.75,1,0,1912
133,62,0.37492984096447346,0.5,0.9999,0,0,11156
133,66,0.6249298409644735,0.99999,0.5,1,1,1658
133,73,0.6249298409644735,0.99999,0.9999,1,0,2401
133,76,0.24992984096447346,0.99999,0.9999,0,1,1940
133,80,0.37492984096447346,0.99999,0.9999,0,0,2762
133,85,0.24992984096447346,0.99999,0.75,0,1,1222
133,89,0.49992984096447346,0.99999,0.5,1,1,2486
133,90,0.7499298409644735,0.99999,0.5,1,0,1117
133,91,0.7499298409644735,0.99999,0.9999,1,1,926
133,94,0.12492984096447346,0.5,0.9999,0,0,2438
133,95,0.49992984096447346,0.99999,0.9999,1,1,7437
133,100,0.6249298409644735,0.99999,0.75,1,0,2018
133,101,0.12492984096447346,0.99999,0.9999,0,0,3123
133,102,0.8749298409644735,0.99999,0.9999,1,1,2790
133,103,0.12492984096447346,0.99999,0.75,0,0,1297
134,4,0.8749298409644735,0,1e-4,1,0,1819
134,8,0.37492984096447346,0.5,0.25,0,0,5244
134,11,0.12492984096447346,0.99999,0.5,0,0,2919
134,13,0.7499298409644735,0.99999,0.25,1,0,1581
134,14,0.49992984096447346,0.5,0.5,0,1,2381
134,15,0.7499298409644735,0,1e-4,0,0,2727
134,17,0.7499298409644735,0,1e-4,1,0,6549
134,22,0.6249298409644735,0.5,0.75,1,1,2876
134,23,0.12492984096447346,0,1e-4,0,1,901
134,26,0.24992984096447346,0.99999,0.25,0,1,1119
134,27,0.37492984096447346,0,1e-4,0,NA,394
134,1,0.49992984096447346,0.99999,0.25,1,0,5532
134,2,0.24992984096447346,0.5,0.9999,0,0,3453
134,3,0.24992984096447346,0.5,0.5,0,1,1363
134,5,0.6249298409644735,0.99999,0.9999,1,0,3062
134,6,0.8749298409644735,0.5,0.75,1,1,2038
134,7,0.8749298409644735,0.5,0.25,1,1,4025
134,9,0.12492984096447346,0.99999,0.9999,1,1,6497
134,10,0.7499298409644735,0.5,0.9999,1,1,3612
134,12,0.7499298409644735,0.5,0.5,1,0,2458
134,16,0.49992984096447346,0.99999,0.75,1,1,1577
134,18,0.24992984096447346,0.5,0.5,0,1,4175
134,19,0.7499298409644735,0.5,0.5,0,0,3486
134,20,0.37492984096447346,0.5,0.75,0,0,4075
134,21,0.7499298409644735,0.99999,0.75,1,0,2801
134,24,0.12492984096447346,0.5,0.75,0,1,1049
134,25,0.8749298409644735,0.5,0.75,1,0,3553
135,3,0.24992984096447346,0.5,0.5,0,1,7927
135,4,0.24992984096447346,0.99999,0.25,0,1,8415
135,5,0.8749298409644735,0.5,0.25,1,0,3136
135,6,0.6249298409644735,0.99999,0.5,1,1,1898
135,7,0.24992984096447346,0,1e-4,0,1,1790
135,10,0.37492984096447346,0.5,0.75,0,0,2164
135,12,0.12492984096447346,0.99999,0.5,0,1,5674
135,13,0.49992984096447346,0,1e-4,0,1,7194
135,14,0.6249298409644735,0.5,0.25,1,0,6518
135,15,0.37492984096447346,0,1e-4,0,0,2384
135,17,0.12492984096447346,0.5,0.75,0,1,6801
135,19,0.8749298409644735,0.5,0.75,1,1,1436
135,20,0.12492984096447346,0.5,0.25,0,1,4272
135,26,0.7499298409644735,0.99999,0.25,0,1,1116
135,28,0.49992984096447346,0.5,0.5,1,1,2450
135,31,0.37492984096447346,0.99999,0.5,0,0,2996
135,32,0.6249298409644735,0,1e-4,0,1,2078
135,34,0.49992984096447346,0,1e-4,0,1,2950
135,36,0.8749298409644735,0,1e-4,1,0,4339
135,39,0.12492984096447346,0,1e-4,0,0,3897
135,41,0.8749298409644735,0.5,0.25,1,0,1832
135,43,0.12492984096447346,0.5,0.25,0,0,529
135,44,0.7499298409644735,0,1e-4,0,0,1728
135,45,0.37492984096447346,0.5,0.25,0,0,580
135,46,0.24992984096447346,0,1e-4,0,1,4137
135,48,0.7499298409644735,0,1e-4,1,1,3412
135,51,0.37492984096447346,0.5,0.25,0,0,1636
135,52,0.7499298409644735,0.5,0.5,0,0,542
135,53,0.37492984096447346,0,1e-4,0,1,319
135,55,0.37492984096447346,0.99999,0.25,0,1,1424
135,56,0.24992984096447346,0,1e-4,0,1,848
135,57,0.49992984096447346,0,1e-4,1,0,10860
135,61,0.8749298409644735,0,1e-4,1,0,2939
135,63,0.6249298409644735,0,1e-4,0,0,4096
135,65,0.24992984096447346,0.99999,0.5,1,0,836
135,67,0.8749298409644735,0,1e-4,0,1,7800
135,71,0.7499298409644735,0,1e-4,0,1,5344
135,72,0.6249298409644735,0.99999,0.25,1,1,3185
135,74,0.24992984096447346,0.99999,0.25,0,1,2256
135,75,0.6249298409644735,0,1e-4,1,0,3159
135,79,0.12492984096447346,0.99999,0.75,0,1,1773
135,81,0.6249298409644735,0.5,0.5,1,0,2478
135,82,0.49992984096447346,0.99999,0.25,1,1,2891
135,86,0.12492984096447346,0,1e-4,0,1,2776
135,87,0.8749298409644735,0.99999,0.25,0,1,1801
135,88,0.7499298409644735,0.5,0.25,0,1,706
135,89,0.49992984096447346,0.5,0.25,0,0,1591
135,94,0.7499298409644735,0.99999,0.25,1,1,698
135,96,0.37492984096447346,0,1e-4,0,1,936
135,97,0.24992984096447346,0.5,0.25,0,0,457
135,98,0.12492984096447346,0,1e-4,0,0,1124
135,104,0.12492984096447346,0.99999,0.25,0,1,1132
135,1,0.12492984096447346,0.5,0.75,0,1,2398
135,2,0.8749298409644735,0.99999,0.9999,1,1,12068
135,8,0.49992984096447346,0.99999,0.25,0,1,4960
135,9,0.24992984096447346,0.5,0.9999,0,0,1701
135,11,0.8749298409644735,0.99999,0.5,1,1,2138
135,16,0.6249298409644735,0.99999,0.9999,1,0,3374
135,18,0.6249298409644735,0.5,0.75,1,0,2885
135,21,0.24992984096447346,0.5,0.5,0,1,1938
135,22,0.7499298409644735,0.5,0.9999,1,1,439
135,23,0.6249298409644735,0.5,0.25,1,1,2823
135,24,0.49992984096447346,0.99999,0.75,1,1,12787
135,25,0.6249298409644735,0.5,0.75,1,1,1010
135,27,0.37492984096447346,0.5,0.75,0,0,901
135,29,0.8749298409644735,0.5,0.75,1,0,1759
135,30,0.24992984096447346,0.5,0.9999,1,0,352
135,33,0.7499298409644735,0.5,0.9999,1,0,1669
135,35,0.12492984096447346,0.99999,0.9999,0,0,2546
135,37,0.7499298409644735,0.5,0.5,1,0,3353
135,38,0.49992984096447346,0.5,0.9999,1,1,2074
135,40,0.24992984096447346,0.99999,0.75,1,0,4376
135,42,0.49992984096447346,0.5,0.5,1,0,1232
135,47,0.7499298409644735,0.99999,0.75,1,1,2291
135,49,0.37492984096447346,0.99999,0.9999,0,0,3707
135,50,0.49992984096447346,0.5,0.9999,1,1,3144
135,54,0.6249298409644735,0.5,0.9999,1,1,2171
135,58,0.7499298409644735,0.99999,0.75,1,1,1640
135,59,0.12492984096447346,0.5,0.5,0,1,1953
135,60,0.6249298409644735,0.99999,0.75,1,1,1905
135,62,0.49992984096447346,0.5,0.75,1,1,11749
135,64,0.37492984096447346,0.5,0.9999,1,1,9496
135,66,0.49992984096447346,0.99999,0.75,0,0,3210
135,68,0.49992984096447346,0.99999,0.5,1,0,3825
135,69,0.8749298409644735,0.5,0.5,1,1,6432
135,70,0.49992984096447346,0.99999,0.9999,1,1,1810
135,73,0.37492984096447346,0.99999,0.5,0,0,2262
135,76,0.37492984096447346,0.99999,0.75,0,0,2904
135,77,0.6249298409644735,0.99999,0.9999,1,0,2172
135,78,0.24992984096447346,0.99999,0.9999,1,1,2559
135,80,0.8749298409644735,0.5,0.9999,0,0,8012
135,83,0.12492984096447346,0.99999,0.9999,1,1,2318
135,84,0.12492984096447346,0.99999,0.5,1,1,8177
135,85,0.24992984096447346,0.5,0.75,0,0,3676
135,90,0.6249298409644735,0.99999,0.5,1,1,1634
135,91,0.37492984096447346,0.99999,0.9999,1,1,261
135,92,0.8749298409644735,0.99999,0.75,1,1,1061
135,93,0.8749298409644735,0.99999,0.5,1,0,14431
135,95,0.7499298409644735,0.99999,0.5,1,1,6368
135,99,0.24992984096447346,0.99999,0.75,1,1,1484
135,100,0.7499298409644735,0.5,0.75,0,0,3645
135,101,0.12492984096447346,0.5,0.9999,0,0,4239
135,102,0.8749298409644735,0.99999,0.9999,1,1,423
135,103,0.37492984096447346,0.5,0.5,0,0,2798
135,105,0.7499298409644735,0.99999,0.9999,1,1,267
136,6,0.24992984096447346,0,1e-4,0,1,1977
136,8,0.7499298409644735,0.99999,0.25,1,0,563
136,11,0.37492984096447346,0,1e-4,0,1,3113
136,12,0.6249298409644735,0,1e-4,1,1,480
136,14,0.12492984096447346,0.5,0.25,0,1,1835
136,15,0.49992984096447346,0,1e-4,0,0,1247
136,16,0.24992984096447346,0,1e-4,0,1,153
136,19,0.49992984096447346,0,1e-4,0,1,5941
136,21,0.8749298409644735,0,1e-4,1,1,3695
136,23,0.8749298409644735,0.5,0.75,1,1,3383
136,25,0.12492984096447346,0,1e-4,0,1,1912
136,26,0.8749298409644735,0.5,0.25,1,0,3672
136,29,0.37492984096447346,0.5,0.25,0,1,3002
136,34,0.24992984096447346,0.99999,0.25,0,1,4111
136,35,0.6249298409644735,0.99999,0.5,1,1,2664
136,37,0.8749298409644735,0.99999,0.5,1,1,575
136,38,0.37492984096447346,0.5,0.75,0,0,9918
136,40,0.6249298409644735,0.5,0.25,1,0,140
136,43,0.37492984096447346,0.5,0.25,0,1,371
136,45,0.37492984096447346,0.99999,0.5,0,1,626
136,47,0.7499298409644735,0,1e-4,1,0,290
136,48,0.7499298409644735,0,1e-4,1,0,2567
136,50,0.12492984096447346,0.5,0.25,0,1,155
136,51,0.8749298409644735,0.5,0.25,1,1,2642
136,53,0.8749298409644735,0,1e-4,1,1,472
136,54,0.8749298409644735,0.99999,0.25,1,1,2496
136,56,0.8749298409644735,0.99999,0.5,1,1,500
136,57,0.24992984096447346,0,1e-4,0,1,536
136,58,0.12492984096447346,0,1e-4,0,0,42
136,60,0.7499298409644735,0,1e-4,1,1,1215
136,63,0.6249298409644735,0.99999,0.25,1,0,159
136,64,0.37492984096447346,0.5,0.5,0,1,445
136,67,0.24992984096447346,0.5,0.75,1,1,786
136,68,0.6249298409644735,0.99999,0.5,1,0,3217
136,69,0.6249298409644735,0.99999,0.75,1,1,1362
136,71,0.49992984096447346,0.99999,0.25,0,1,47
136,72,0.24992984096447346,0.99999,0.25,0,1,123
136,74,0.6249298409644735,0,1e-4,1,0,4500
136,77,0.37492984096447346,0.99999,0.25,0,0,2328
136,78,0.12492984096447346,0.99999,0.5,0,1,834
136,80,0.7499298409644735,0.5,0.25,1,0,1727
136,82,0.37492984096447346,0,1e-4,1,0,735
136,85,0.49992984096447346,0.5,0.25,0,0,290
136,89,0.6249298409644735,0,1e-4,1,1,2157
136,90,0.12492984096447346,0.5,0.5,0,0,714
136,92,0.7499298409644735,0.99999,0.75,1,1,1473
136,93,0.8749298409644735,0,1e-4,1,0,2183
136,94,0.49992984096447346,0,1e-4,0,0,2983
136,95,0.12492984096447346,0,1e-4,0,1,983
136,98,0.6249298409644735,0.5,0.5,1,1,1604
136,100,0.24992984096447346,0.5,0.25,0,1,1252
136,102,0.24992984096447346,0.99999,0.75,0,0,2227
136,104,0.37492984096447346,0,1e-4,0,1,107
136,1,0.7499298409644735,0.5,0.9999,1,1,1911
136,2,0.8749298409644735,0.5,0.75,1,1,177
